SensorId, TimeStamp (s), FrameNumber, AccX (g), AccY (g), AccZ (g), GyroX (deg/s), GyroY (deg/s), GyroZ (deg/s), MagX (uT), MagY (uT), MagZ (uT), EulerX (deg), EulerY (deg), EulerZ (deg), QuatW, QuatX, QuatY, QuatZ, LinAccX (g), LinAccY (g), LinAccZ (g), Pressure (kPa), Altitude (m), Temperature (degC), HeaveMotion (m),Rep,Clase
4,0,0,0.06847711,-0.91208744,-0.38338035,1.83320606,-0.04539591,0.06395345,-23.96959877,-35.74977875,-72.31803131,0,0,0,1,0,0,0,0,0,0,0,0,0,0,1,2
1,0,0,0.0663762,-0.99955457,0.08010567,-0.18647251,0.77140713,-1.01571977,-47.03303146,0.99386144,-99.3276825,0.13791808,-0.25739309,-0.19943962,0.99999523,-0.00119965,0.00224827,0.00173773,-0.0007985,0.0048738,0.00493365,0,0,0,0,1,2
3,0,0,0.0120556,-1.00017154,-0.04267874,0.1650998,0.12593961,0.81376785,-23.09266281,24.49576187,-76.99503326,-0.06376979,-1.08920753,-0.74754727,0.99993336,0.00061847,0.00950115,0.00652853,-0.0019785,0.00257698,0.00118946,0,0,0,0,1,2
2,0.0001,0,-0.16459891,-0.97066605,-0.1742243,-0.85282487,1.70835412,-0.97399807,-59.86553574,-9.14937115,-88.16135406,-0.09857824,0.74913222,6.74796963,0.99824464,0.00124349,-0.0064754,-0.05885743,0.00948685,0.00184969,-0.00010069,0,0,0,0,1,2
1,0.01,1,0.0587487,-1.00186419,0.08225001,-0.3639231,0.52583438,-0.74662012,-47.0914917,1.46156096,-99.3276825,0.13466619,-0.2503438,-0.19339633,0.99999559,-0.00117149,0.00218664,0.00168513,0.00711545,0.00688976,0.00685403,0,0,0,0,1,2
3,0.01,1,0.01521856,-0.99882662,-0.04329118,0.02513009,-0.3768554,0.82297343,-22.80035019,24.96346092,-77.57965088,-0.06355529,-1.0975982,-0.75093323,0.99993253,0.00061735,0.00957436,0.00655809,-0.0053215,0.00189802,-0.00003201,0,0,0,0,1,2
4,0.01,1,0.06483833,-0.91772497,-0.38541004,2.26069856,-0.28719684,0.13760471,-23.41420555,-36.39286804,-71.90879822,0,0,0,1,0,0,0,0,0,0,0,0,0,0,1,2
2,0.0101,1,-0.15971634,-0.97199005,-0.17335358,-0.78250712,1.48699141,-1.13466227,-60.30400467,-9.47091484,-88.7167511,-0.04914511,0.71753603,6.76199818,0.9982397,0.0007974,-0.00622545,-0.05897683,0.00451851,0.00286427,0.00021184,0,0,0,0,1,2
1,0.02,2,0.05218454,-1.00400352,0.08167342,0.06743287,0.33961579,-0.61834466,-46.44840622,0.76001167,-99.44460297,0.18635549,-0.43255866,-0.19729945,0.99999017,-0.00161974,0.00377757,0.00171561,0.01310098,0.00595976,0.0084875,0,0,0,0,1,2
3,0.02,2,0.01069878,-0.9989332,-0.04485514,-0.09730297,-0.7065165,0.85223192,-22.1572628,24.78807259,-77.22888184,-0.0645766,-1.10642135,-0.75758582,0.99993134,0.00062733,0.00965126,0.00661626,-0.0009496,0.00035422,0.00001509,0,0,0,0,1,2
4,0.02,2,0.06089041,-0.92056435,-0.38722011,2.51109171,-0.54471433,0.09262559,-23.41420555,-36.39286804,-71.90879822,0,0,0,1,0,0,0,0,0,0,0,0,0,0,1,2
2,0.0201,2,-0.15839304,-0.97472018,-0.17552321,-0.80146176,1.35263526,-1.29333901,-60.30400467,-9.47091484,-88.7167511,-0.05877795,0.73266691,6.77150202,0.99823391,0.00088963,-0.00635223,-0.05906016,0.00235829,0.00060431,0.00301133,0,0,0,0,1,2
1,0.03,3,0.04774672,-1.0088383,0.07937107,0.32775599,-0.38709185,-0.69890416,-46.76995087,1.14001751,-99.59075928,0.18939863,-0.42529547,-0.20084894,0.99999022,-0.00164629,0.00371428,0.00174659,0.01550333,0.00259653,0.01283708,0,0,0,0,1,2
3,0.03,3,0.0047862,-1.00153363,-0.04562788,-0.04517682,-0.87896609,0.76298755,-22.97573853,24.61268616,-77.28733826,-0.05513154,-1.16775739,-0.7627812,0.99992585,0.00054891,0.010187,0.00666103,0.0046561,-0.00033918,0.00248196,0,0,0,0,1,2
4,0.03,3,0.05817758,-0.92201895,-0.38785183,2.40536499,-0.61171967,-0.04592378,-23.58959389,-36.18824768,-72.25957489,0,0,0,1,0,0,0,0,0,0,0,0,0,0,1,2
2,0.0301,3,-0.15874846,-0.97561514,-0.17268614,-0.7487033,1.28657067,-1.45198405,-60.04092407,-8.71090317,-88.80444336,-0.06773953,0.74924839,6.78018236,0.99822837,0.00097673,-0.00649198,-0.0591363,0.00292384,0.00371483,0.00344848,0,0,0,0,1,2
1,0.04,4,0.05421843,-1.0105722,0.07537547,0.40573287,-0.82046229,-0.85379869,-46.76995087,1.14001751,-99.59075928,0.19298299,-0.41615787,-0.20864867,0.99999034,-0.00167747,0.00363471,0.00181467,0.00929714,-0.00156515,0.0147234,0,0,0,0,1,2
3,0.04,4,0.00323733,-1.00051713,-0.04925589,-0.24159136,-0.67047542,0.64346093,-22.97573853,24.61268616,-77.28733826,-0.05759524,-1.17448449,-0.76912624,0.9999249,0.00057137,0.01024552,0.00671664,0.00535864,-0.00410533,0.00159819,0,0,0,0,1,2
4,0.04,4,0.05689404,-0.92244059,-0.38389355,2.38711691,-0.503609,-0.34020004,-23.26804924,-37.50365448,-72.14264679,0,0,0,1,0,0,0,0,0,0,0,0,0,0,1,2
2,0.0401,4,-0.16401431,-0.97244215,-0.16570507,-0.74838501,1.35476887,-1.41622889,-59.77784348,-9.17860222,-88.21981812,-0.07681629,0.76559812,6.7895813,0.99822247,0.00106478,-0.00662963,-0.05921873,0.00913689,0.01018587,0.00004193,0,0,0,0,1,2
3,0.05,5,0.00872111,-1.00074708,-0.04944833,-0.24338932,-0.51373178,0.54148501,-22.82958221,24.87576675,-76.93656921,-0.06006134,-1.18012226,-0.77393472,0.99992406,0.00059365,0.01029455,0.00675884,-0.00022398,-0.00425126,0.00199757,0,0,0,0,1,2
1,0.05,5,0.06108562,-1.00797749,0.0655619,0.52606797,-0.45420632,-0.78936481,-45.51300812,0.87693655,-99.94153595,0.19798315,-0.40794057,-0.21293516,0.99999052,-0.0017211,0.00356314,0.00185204,0.00236947,-0.01124771,0.01190906,0,0,0,0,1,2
4,0.05,5,0.05671869,-0.92139781,-0.38009793,2.19028711,-0.25989756,-0.50601804,-23.61882401,-35.98363113,-72.14264679,0,0,0,1,0,0,0,0,0,0,0,0,0,0,1,2
2,0.0501,5,-0.16645749,-0.96846896,-0.16878688,-0.65734369,1.97335875,-1.35748839,-60.33323669,-8.91552162,-88.48290253,-0.08593617,0.78247333,6.80523634,0.99821329,0.00115387,-0.00677176,-0.05935568,0.01240149,0.00660681,-0.00286105,0,0,0,0,1,2
3,0.06,6,0.01171845,-1.00082636,-0.04776014,-0.27878326,-0.47914997,0.54183042,-23.50189972,25.1973114,-76.70272064,-0.06288441,-1.18575096,-0.77840084,0.99992329,0.00061902,0.01034347,0.00679809,-0.0033151,-0.0025151,0.00209124,0,0,0,0,1,2
1,0.06,6,0.0701131,-0.99652964,0.06476609,0.53227746,0.43199673,-0.70496887,-46.8284111,1.28617358,-99.79537964,0.20359841,-0.40123928,-0.20846938,0.99999064,-0.00177035,0.00350469,0.001813,-0.0073091,-0.01129681,0.00109087,0,0,0,0,1,2
4,0.06,6,0.05763967,-0.91925335,-0.38098383,1.88632977,0.05005436,-0.51127964,-23.61882401,-35.98363113,-72.14264679,0,0,0,1,0,0,0,0,0,0,0,0,0,0,1,2
2,0.0601,6,-0.16031311,-0.96794903,-0.17328833,-0.76394039,2.40602183,-1.38619637,-60.33323669,-8.71090317,-88.45366669,-0.08944386,0.76760441,6.83070755,0.99820089,0.0011782,-0.00664016,-0.05957772,0.00645917,0.0022289,-0.00361083,0,0,0,0,1,2
1,0.07,7,0.0709346,-0.99462336,0.07149656,0.37777752,1.29897726,-0.65465665,-47.06226349,1.14001751,-99.97076416,0.1883029,-0.32637322,-0.19251364,0.99999326,-0.00163846,0.00285089,0.00167531,-0.00782165,-0.00445755,-0.00026338,0,0,0,0,1,2
4,0.07,7,0.05948353,-0.91770691,-0.38260877,1.6386584,-0.01810551,-0.59445304,-23.15112495,-35.89593506,-71.96726227,0,0,0,1,0,0,0,0,0,0,0,0,0,0,1,2
3,0.07,7,0.01252845,-1.0023706,-0.0454009,-0.47259292,-0.4624649,0.57591379,-23.18035698,24.70038033,-76.73194885,-0.06763992,-1.19172215,-0.78264517,0.99992239,0.00066125,0.01039527,0.00683558,-0.00418565,-0.00001854,0.00355516,0,0,0,0,1,2
2,0.0701,7,-0.15502211,-0.96946669,-0.17618136,-0.72809541,2.47501731,-1.40324736,-60.33323669,-8.71090317,-88.45366669,-0.10003756,0.78582245,6.851017,0.99818915,0.00128115,-0.00679312,-0.05975532,0.00079155,-0.00026315,-0.00252477,0,0,0,0,1,2
1,0.08,8,0.06774391,-0.99813896,0.07979869,-0.01740014,1.3812139,-0.61404246,-47.17918777,0.935399,-99.59075928,0.18904281,-0.32129869,-0.17829788,0.99999356,-0.00164534,0.00280642,0.00155131,-0.00335257,0.00379191,0.00360651,0,0,0,0,1,2
4,0.08,8,0.05936256,-0.91711181,-0.381625,1.58713484,-0.24376339,-0.51021951,-23.38497543,-35.98363113,-71.87957001,0,0,0,1,0,0,0,0,0,0,0,0,0,0,1,2
3,0.08,8,0.00907232,-0.99909699,-0.04200792,-0.22313735,-0.58437532,0.71437263,-23.15112495,24.52499199,-76.87810516,-0.03429884,-1.2253933,-0.78998566,0.999919,0.00037301,0.01069105,0.00689667,-0.00106442,0.00313049,0.00004119,0,0,0,0,1,2
2,0.0801,8,-0.14886709,-0.97083217,-0.17719562,-0.72901779,2.04408932,-1.40831494,-60.27477264,-8.50628471,-88.80444336,-0.1099591,0.80332917,6.8671422,0.99817955,0.00137768,-0.00694025,-0.05989646,-0.00521787,-0.00083768,-0.00205299,0,0,0,0,1,2
1,0.09,9,0.06260822,-1.00202489,0.08638877,-0.39141026,1.25527501,-0.6850245,-47.17918777,0.935399,-99.59075928,0.18597534,-0.31542256,-0.16501796,0.99999386,-0.00161897,0.00275491,0.00143558,0.00216716,0.01010265,0.00759125,0,0,0,0,1,2
4,0.09,9,0.06256615,-0.9174664,-0.38223672,1.32294869,-0.48660022,-0.4566316,-23.41420555,-35.48669815,-71.90879822,0,0,0,1,0,0,0,0,0,0,0,0,0,0,1,2
3,0.09,9,0.00180074,-0.9992485,-0.04501844,-0.18806152,-0.58417124,0.69716042,-23.09266281,24.46652985,-77.05348969,-0.0362251,-1.23262048,-0.79545873,0.99991798,0.00039076,0.01075398,0.00694463,0.00574219,-0.00029602,0.00012363,0,0,0,0,1,2
2,0.0901,9,-0.1478609,-0.9749462,-0.18090144,-0.74747419,1.82054615,-1.42822778,-60.21630859,-9.12014008,-89.03829193,-0.11971594,0.82063437,6.88103008,0.99817109,0.00147258,-0.00708572,-0.06001811,-0.00669914,-0.00358416,0.00242014,0,0,0,0,1,2
1,0.1,10,0.05914331,-1.00507486,0.08545013,-0.54812515,0.94073695,-0.76458126,-46.41917419,0.87693655,-98.91844177,0.18114224,-0.30851278,-0.15470138,0.99999422,-0.00157712,0.00269441,0.00134576,0.00594333,0.00904591,0.01031506,0,0,0,0,1,2
4,0.1,10,0.06293602,-0.91631275,-0.38197717,1.3924011,-0.31594411,-0.33285996,-23.61882401,-35.72055054,-72.02572632,0,0,0,1,0,0,0,0,0,0,0,0,0,0,1,2
3,0.1,10,-0.00058262,-1.00146949,-0.04652468,-0.26024762,0.14330073,0.70766932,-23.09266281,24.46652985,-77.05348969,-0.03881832,-1.23963034,-0.79363245,0.99991745,0.00041365,0.010815,0.00692895,0.00806482,-0.00166516,0.00234171,0,0,0,0,1,2
2,0.1001,10,-0.15192764,-0.97672051,-0.17503272,-0.89075744,1.50934041,-1.32548511,-59.86553574,-9.06167793,-88.80444336,-0.13043503,0.83637583,6.89182997,0.9981643,0.00157487,-0.00721707,-0.06011295,-0.00252052,0.00267805,0.00380651,0,0,0,0,1,2
4,0.11,11,0.06392196,-0.91618949,-0.38203561,1.65530384,0.08124821,-0.33125296,-23.61882401,-35.72055054,-72.02572632,0,0,0,1,0,0,0,0,0,0,0,0,0,0,1,2
1,0.11,11,0.05582887,-1.01116264,0.07592038,0.03366223,0.33953306,-0.98135608,-46.62379456,1.57848585,-99.53230286,0.18175577,-0.2989842,-0.15060769,0.99999452,-0.00158268,0.0026112,0.00131015,0.00977531,-0.00090141,0.01544916,0,0,0,0,1,2
3,0.11,11,0.00332292,-1.00213754,-0.04586651,-0.27960846,0.36916891,0.62402475,-23.00496864,23.9988308,-76.99503326,-0.0415754,-1.24568772,-0.78959119,0.99991715,0.00043769,0.0108677,0.00689396,0.00406878,-0.00093307,0.00309556,0,0,0,0,1,2
2,0.1101,11,-0.15604398,-0.97525388,-0.168992,-0.96197003,1.47364724,-1.23775029,-59.86553574,-9.06167793,-88.80444336,-0.0488745,0.82142311,6.89746141,0.9981631,0.00085693,-0.00712957,-0.06015684,0.00208728,0.0081513,0.00202387,0,0,0,0,1,2
1,0.12,12,0.06078225,-1.00743783,0.06978188,-0.01857095,0.26950836,-1.08732164,-45.42531204,0.17538731,-99.06459808,0.09221345,-0.29706198,-0.13758449,0.99999565,-0.0008016,0.00259331,0.00119856,0.0046886,-0.00635431,0.01164252,0,0,0,0,1,2
3,0.12,12,0.00951467,-1.00273871,-0.04969051,-0.33387166,0.28327894,0.51817459,-23.12189484,24.90499878,-76.49810028,-0.04489749,-1.25073349,-0.78645235,0.99991679,0.00046668,0.01091154,0.0068669,-0.00219489,-0.00467072,0.00404597,0,0,0,0,1,2
4,0.12,12,0.06398205,-0.91885298,-0.3831687,1.76018119,0.30923799,-0.55618614,-23.53113174,-36.30517197,-72.02572632,0,0,0,1,0,0,0,0,0,0,0,0,0,0,1,2
2,0.1201,12,-0.15901318,-0.97289139,-0.16615506,-1.17626095,1.66522563,-1.23318291,-60.01169205,-10.05553913,-88.86290741,-0.06269332,0.83651757,6.90947771,0.99815577,0.00098599,-0.00725369,-0.06026239,0.00536301,0.00954211,-0.00026741,0,0,0,0,1,2
1,0.13,13,0.07275641,-1.00016642,0.06966843,0.03012234,0.65233356,-1.05633223,-46.21455765,1.19848001,-99.29844666,0.09297563,-0.28701442,-0.13033143,0.99999595,-0.00080851,0.00250559,0.00113532,-0.00769385,-0.00478162,0.00523211,0,0,0,0,1,2
3,0.13,13,0.01288527,-1.00096405,-0.04643126,-0.17497763,0.0759651,0.48107803,-22.65419388,24.81730461,-77.17041779,-0.03869526,-1.18894756,-0.79276931,0.99992216,0.00040943,0.01037275,0.00692129,-0.00541069,-0.00149085,0.00222355,0,0,0,0,1,2
4,0.13,13,0.06232174,-0.92063516,-0.38209569,1.4412818,0.29457664,-0.75899965,-23.32651329,-36.12978745,-71.64571381,0,0,0,1,0,0,0,0,0,0,0,0,0,0,1,2
2,0.1301,13,-0.15686361,-0.97028607,-0.16515228,-1.06756127,2.21507788,-1.19292045,-60.01169205,-9.88015175,-89.09675598,-0.07627341,0.85219389,6.92707634,0.9981454,0.00111365,-0.00738293,-0.06041658,0.00397289,0.01030435,-0.00332717,0,0,0,0,1,2
3,0.14,14,0.01289161,-0.99850512,-0.04492038,-0.35070923,-0.21900904,0.49321273,-22.6834259,24.64191818,-76.84887695,-0.04220838,-1.19397581,-0.7946372,0.99992168,0.00044056,0.01041641,0.00693792,-0.00470526,-0.00014049,-0.00031519,0,0,0,0,1,2
1,0.14,14,0.07992949,-0.9944821,0.07432996,0.27350506,1.15895963,-0.90118462,-46.74071884,1.05232382,-98.42151642,0.0964988,-0.27888587,-0.11832842,0.99999624,-0.00083959,0.0024346,0.00103056,-0.015069,0.00024553,0.0004141,0,0,0,0,1,2
4,0.14,14,0.05936531,-0.920223,-0.381239,0.98000187,0.31076038,-0.7487976,-23.26804924,-37.47442245,-72.08418274,0,0,0,1,0,0,0,0,0,0,0,0,0,0,1,2
2,0.1401,14,-0.15175666,-0.97068781,-0.1689973,-0.78083068,2.47138262,-1.21046853,-60.21630859,-9.00321579,-88.45366669,-0.0873935,0.86850953,6.94760752,0.99813336,0.00122046,-0.00751896,-0.06059617,-0.00095858,0.00680527,-0.00312089,0,0,0,0,1,2
1,0.15,15,0.08081082,-0.99494904,0.07657081,0.09428126,1.15683758,-0.86530674,-46.74071884,1.05232382,-98.42151642,0.09821574,-0.27111825,-0.10623901,0.99999648,-0.0008549,0.00236674,0.00092508,-0.0157712,0.00238658,0.00110212,0,0,0,0,1,2
3,0.15,15,0.01075998,-0.99694347,-0.04437265,-0.45493275,-0.46243194,0.57599944,-22.6834259,24.64191818,-76.84887695,-0.04680017,-1.19992971,-0.79888397,0.99992079,0.00048138,0.01046806,0.00697541,-0.00271741,0.00041104,-0.00195842,0,0,0,0,1,2
4,0.15,15,0.05905546,-0.91699624,-0.38119677,0.99593621,0.51522732,-0.58836007,-23.53113174,-35.95439911,-71.47032928,0,0,0,1,0,0,0,0,0,0,0,0,0,0,1,2
2,0.1501,15,-0.14668542,-0.97345483,-0.17863916,-0.60073113,2.62112331,-1.03587008,-59.48553085,-9.67553329,-88.16135406,-0.09698607,0.88338071,6.97019958,0.99812025,0.00131339,-0.00764316,-0.06079363,-0.00643052,-0.00201916,0.00039692,0,0,0,0,1,2
1,0.16,16,0.07761987,-0.99735779,0.07931065,-0.06684572,1.15495646,-0.86415374,-47.2084198,1.46156096,-99.23999023,0.09833968,-0.26336133,-0.09406032,0.99999666,-0.00085629,0.00229896,0.00081886,-0.01227132,0.00494448,0.00347379,0,0,0,0,1,2
4,0.16,16,0.05978915,-0.91653967,-0.38332507,1.06530786,0.66532642,-0.25556743,-23.53113174,-35.95439911,-71.47032928,0,0,0,1,0,0,0,0,0,0,0,0,0,0,1,2
3,0.16,16,0.00814997,-0.99890018,-0.04321633,-0.32869351,-0.77513605,0.71101665,-22.9465065,24.70038033,-77.08272552,-0.05014554,-1.20737815,-0.80619943,0.99991965,0.00051169,0.01053282,0.00703958,-0.00017422,0.00171707,-0.00012865,0,0,0,0,1,2
2,0.1601,16,-0.14242482,-0.97344345,-0.18108007,-0.6014576,2.24153161,-1.02285767,-59.48553085,-9.67553329,-88.16135406,-0.16684341,1.01101482,6.97196007,0.9981091,0.00198969,-0.00871779,-0.06081468,-0.00995393,-0.00399157,0.00010841,0,0,0,0,1,2
1,0.17,17,0.07193664,-1.00327718,0.08477803,0.05998086,1.06961656,-0.93744308,-46.53609848,1.28617358,-99.79537964,0.21926615,-0.24515361,-0.09435303,0.99999565,-0.00191169,0.00214094,0.00081929,-0.00597796,0.00942582,0.00936357,0,0,0,0,1,2
4,0.17,17,0.06058505,-0.91468954,-0.384947,1.43783557,0.60920578,0.06694872,-23.06343079,-36.18824768,-72.14264679,0,0,0,1,0,0,0,0,0,0,0,0,0,0,1,2
3,0.17,17,0.00642573,-1.00079453,-0.04635781,-0.11617231,-0.82698828,0.74603653,-22.74188805,24.78807259,-77.17041779,-0.05137178,-1.21520329,-0.81409705,0.99991846,0.0005236,0.01060099,0.00710863,0.0014738,-0.00129786,0.00185445,0,0,0,0,1,2
2,0.1701,17,-0.14517997,-0.97612131,-0.18105099,-0.76439881,1.34667933,-1.03164554,-59.51476288,-10.05553913,-88.89213562,-0.17613831,1.02358139,6.9819088,0.99810261,0.00207808,-0.00882213,-0.06090214,-0.0059674,-0.00253926,0.00319541,0,0,0,0,1,2
1,0.18,18,0.06202917,-1.00837934,0.08353744,0.01440335,0.56543338,-1.24968624,-47.26688004,1.37386727,-99.21075439,0.21983467,-0.23312567,-0.08778866,0.99999577,-0.00191685,0.00203587,0.00076219,0.00456551,0.00624449,0.01366148,0,0,0,0,1,2
3,0.18,18,0.00531959,-1.00156069,-0.0479282,-0.06490563,-0.47985899,0.68192661,-22.65419388,24.32037354,-76.81964111,-0.11455825,-1.22648156,-0.81454736,0.99991697,0.0010757,0.01069548,0.00711849,0.00245448,-0.00254524,0.00266024,0,0,0,0,1,2
4,0.18,18,0.06594698,-0.91431975,-0.38499811,1.86428142,0.48672247,0.23004915,-23.56036186,-36.01286316,-72.20111084,0,0,0,1,0,0,0,0,0,0,0,0,0,0,1,2
2,0.1801,18,-0.15179186,-0.97725624,-0.17182808,-0.62092841,1.22207987,-0.91231757,-59.66091537,-8.44782257,-88.86290741,-0.18384078,1.0347513,6.99109888,0.99809664,0.00215182,-0.00891516,-0.06098288,0.00084275,0.00688076,0.00380398,0,0,0,0,1,2
1,0.19,19,0.05573757,-1.01248097,0.0777505,0.15177567,-0.30162835,-1.43825793,-46.00993729,1.11078632,-99.35691071,0.22122453,-0.21855468,-0.08979276,0.99999607,-0.00192905,0.00190876,0.0007799,0.01133926,0.00014793,0.01688334,0,0,0,0,1,2
4,0.19,19,0.07069939,-0.9189651,-0.38352993,2.05851674,0.57062179,0.4019053,-23.41420555,-35.8082428,-71.93802643,0,0,0,1,0,0,0,0,0,0,0,0,0,0,1,2
3,0.19,19,0.00671412,-1.00648832,-0.05010568,-0.04694052,-0.39348266,0.71807122,-22.71265602,24.61268616,-76.73194885,-0.1150599,-1.23383582,-0.81813842,0.99991596,0.00108087,0.01075959,0.00714993,0.00102435,-0.00368125,0.00772245,0,0,0,0,1,2
2,0.1901,19,-0.1609021,-0.97258133,-0.16571878,-0.97816819,1.379372,-0.85418069,-59.89476776,-9.03244686,-88.65828705,-0.19532707,1.04563487,7.00131321,0.99809021,0.00225845,-0.00900364,-0.06107285,0.01096887,0.01224747,-0.00026165,0,0,0,0,1,2
4,0.2,20,0.07243793,-0.92000222,-0.37896693,1.77345252,0.72432554,0.46318281,-23.18035698,-35.8082428,-72.14264679,0,0,0,1,0,0,0,0,0,0,0,0,0,0,1,2
1,0.2,20,0.06257525,-1.0083307,0.07365802,-0.13390458,-0.35707664,-1.45542586,-46.00993729,1.11078632,-99.35691071,0.21972036,-0.20377114,-0.09214184,0.9999963,-0.00191599,0.00177978,0.00080068,0.004473,-0.00362572,0.01293362,0,0,0,0,1,2
3,0.2,20,0.01201876,-1.00515854,-0.04939128,-0.08195336,-0.65326905,0.69664085,-22.80035019,25.28500366,-77.02426147,-0.11592527,-1.24109495,-0.82432127,0.99991488,0.00108946,0.01082282,0.00720403,-0.00444221,-0.00301188,0.00651961,0,0,0,0,1,2
4,0.21,21,0.07119732,-0.91795796,-0.38150316,1.40067124,0.77657932,0.38489518,-23.18035698,-36.12978745,-72.14264679,0,0,0,1,0,0,0,0,0,0,0,0,0,0,1,2
1,0.21,21,0.07129868,-0.99751848,0.07239706,-0.35884684,0.33515844,-1.22071624,-46.56533051,1.34463608,-99.47383881,0.21642235,-0.19185598,-0.08762516,0.99999654,-0.00188736,0.0016757,0.00076151,-0.00476281,-0.00404591,0.00269245,0,0,0,0,1,2
3,0.21,21,0.0141078,-1.00241745,-0.04619064,-0.09917197,-0.86118889,0.69345474,-22.80035019,25.28500366,-77.02426147,-0.11697833,-1.24842107,-0.83258176,0.99991369,0.00109989,0.0108866,0.00727627,-0.00674427,0.00008307,0.00370461,0,0,0,0,1,2
2,0.2101,20,-0.16919343,-0.97213066,-0.16410455,-0.95973754,2.1946044,-1.08945894,-59.98246002,-8.76936531,-88.48290253,-0.07158194,0.9078396,7.05256557,0.99807495,0.00111074,-0.00786889,-0.06150938,0.01899885,0.01353759,0.00040902,0,0,0,0,1,2
4,0.22,22,0.06485978,-0.91637987,-0.37709624,1.13463533,0.79542077,0.25135624,-23.61882401,-36.15901566,-71.55802155,0,0,0,1,0,0,0,0,0,0,0,0,0,0,1,2
1,0.22,22,0.07373063,-0.9942866,0.07518262,0.25546774,1.12390828,-0.79854536,-46.74071884,1.54925454,-99.15229034,0.21044451,-0.1272229,-0.07662952,0.99999744,-0.00183573,0.00111145,0.00066668,-0.006989,-0.00100393,-0.00015264,0,0,0,0,1,2
3,0.22,22,0.00709346,-0.99765193,-0.04605891,-0.02865226,-1.03401983,0.65644658,-23.06343079,24.99269104,-77.57965088,-0.11733141,-1.25545323,-0.84259206,0.99991238,0.00110438,0.01094784,0.00736371,0.00000614,0.00002612,-0.00126067,0,0,0,0,1,2
2,0.2201,21,-0.15793803,-0.97307497,-0.17089121,-1.01294148,2.57581449,-1.15430355,-58.98859787,-9.99707699,-88.74597931,-0.08512924,0.92378438,7.07382536,0.99806219,0.00123878,-0.00800026,-0.06169551,0.00565031,0.00530309,0.00057931,0,0,0,0,1,2
4,0.23,23,0.0606669,-0.91722399,-0.37790427,0.9929359,0.77868092,0.20174512,-23.47266769,-36.01286316,-71.64571381,0,0,0,1,0,0,0,0,0,0,0,0,0,0,1,2
1,0.23,23,0.06841238,-0.99739116,0.0773266,0.20305508,0.9319824,-0.59761709,-46.62379456,1.14001751,-99.06459808,0.2131331,-0.12197538,-0.0670485,0.99999762,-0.00185931,0.00106552,0.00058313,-0.00060612,0.00097174,0.00271772,0,0,0,0,1,2
3,0.23,23,0.0022267,-0.99828148,-0.04489899,0.05958807,-1.12033641,0.63819945,-23.41420555,24.20344925,-77.14118958,-0.11564241,-1.35392463,-0.85043985,0.99990213,0.00109676,0.01180712,0.00743282,0.00436788,0.00119536,-0.00081254,0,0,0,0,1,2
2,0.2301,22,-0.15120327,-0.96681476,-0.18343,-0.9242686,2.36964893,-1.22759879,-59.80707169,-9.58784008,-88.24904633,-0.0974781,0.94008911,7.0930953,0.99805057,0.00135648,-0.0081354,-0.06186426,-0.00004258,-0.00790673,-0.00443539,0,0,0,0,1,2
1,0.24,24,0.06455319,-0.99899095,0.08110544,-0.0076969,0.58194298,-0.53968143,-46.88687515,1.25694239,-99.29844666,0.21346708,-0.11703928,-0.06084464,0.99999762,-0.00186231,0.00102235,0.00052907,0.00345738,0.00460809,0.00431398,0,0,0,0,1,2
4,0.24,24,0.05788319,-0.91686928,-0.38162318,0.99342799,0.70888156,0.2528086,-23.58959389,-35.77901077,-72.2888031,0,0,0,1,0,0,0,0,0,0,0,0,0,0,1,2
3,0.24,24,-0.00186241,-1.00008464,-0.04622056,0.2193234,-1.03397238,0.70979631,-23.18035698,24.84653664,-76.93656921,-0.11350196,-1.36148953,-0.86050296,0.9999007,0.00107961,0.01187318,0.00752047,0.00718358,-0.00008413,0.00095793,0,0,0,0,1,2
2,0.2401,23,-0.14583954,-0.9697268,-0.18294965,-0.889759,2.09652805,-1.37100959,-59.54399109,-9.20783424,-88.74597931,-0.1090261,0.95731956,7.10952282,0.99804032,0.00146754,-0.00827902,-0.06200822,-0.00550335,-0.00672488,-0.00259018,0,0,0,0,1,2
1,0.25,25,0.06233362,-1.00401402,0.07914436,-0.11348265,0.47649667,-0.59464687,-46.88687515,1.25694239,-99.29844666,0.21268488,-0.1114743,-0.05557084,0.99999774,-0.00185555,0.00097369,0.00048314,0.00610397,0.00228908,0.00901415,0,0,0,0,1,2
4,0.25,25,0.05812149,-0.91670465,-0.38467082,1.20794868,0.48383456,0.33133966,-23.58959389,-35.77901077,-72.2888031,0,0,0,1,0,0,0,0,0,0,0,0,0,0,1,2
2,0.2501,24,-0.14202383,-0.97515976,-0.18535256,-0.65603584,2.14160299,-1.16326714,-59.77784348,-9.14937115,-88.13212585,-0.11838694,0.97259396,7.12714291,0.99802947,0.00155863,-0.00840675,-0.06216242,-0.00995205,-0.00795209,0.00246366,0,0,0,0,1,2
1,0.26,26,0.05932341,-1.00966001,0.07244159,0.04852428,0.53075331,-0.87065578,-46.91610718,1.90002918,-99.38614655,0.21356878,-0.10319878,-0.04966351,0.99999785,-0.00186335,0.00090139,0.00043172,0.00959531,-0.00479747,0.01393569,0,0,0,0,1,2
4,0.26,26,0.06416714,-0.91921818,-0.38317332,1.72282898,0.4157688,0.3364886,-23.79421234,-35.45746994,-71.85033417,0,0,0,1,0,0,0,0,0,0,0,0,0,0,1,2
2,0.2601,25,-0.14270018,-0.97952807,-0.18341735,-0.88958573,1.57378697,-1.11500788,-59.77784348,-9.14937115,-88.13212585,-0.16366066,1.06647193,7.12570953,0.99802226,0.00200373,-0.00919984,-0.06215397,-0.00935036,-0.00493799,0.00648955,0,0,0,0,1,2
1,0.27,27,0.0596862,-1.01770747,0.07187467,-0.0156567,0.09588642,-1.21480858,-46.53609848,2.10464764,-99.82460785,0.12506093,-0.16823304,-0.04372614,0.99999827,-0.0010908,0.00146852,0.00037998,0.00963417,-0.00558623,0.02192608,0,0,0,0,1,2
4,0.27,27,0.06725519,-0.92222422,-0.38144103,2.02439189,0.39783746,0.41693246,-24.05729294,-35.72055054,-72.2888031,0,0,0,1,0,0,0,0,0,0,0,0,0,0,1,2
3,0.27,25,0.00934799,-1.00669348,-0.04811413,0.12711409,0.23119794,0.64131129,-22.9465065,24.17421722,-76.76117706,-0.10825346,-1.38031733,-0.85577804,0.99989903,0.00103455,0.01203785,0.00747883,-0.00416441,-0.00178673,0.00797398,0,0,0,0,1,2
2,0.2701,26,-0.14953957,-0.97613883,-0.17381987,-0.74740446,0.96767384,-1.05377245,-59.16398621,-9.12014008,-88.30751038,-0.17219549,1.0785737,7.13197231,0.99801767,0.00208513,-0.00930049,-0.0622093,-0.00049604,0.0045115,0.00270172,0,0,0,0,1,2
1,0.28,28,0.0722982,-1.00948191,0.06619978,-0.06190493,-0.35617679,-1.5251323,-47.06226349,1.60771704,-99.26921844,0.12427397,-0.15275979,-0.04608597,0.99999845,-0.00108396,0.00133352,0.00040073,-0.00430656,-0.00946587,0.01420891,0,0,0,0,1,2
4,0.28,28,0.07009989,-0.9238506,-0.37822682,1.59888542,0.36071745,0.53009015,-23.47266769,-36.07132339,-72.43495941,0,0,0,1,0,0,0,0,0,0,0,0,0,0,1,2
3,0.28,26,0.01458234,-1.00685143,-0.04915321,0.12866756,0.0745924,0.72590369,-23.58959389,24.70038033,-77.46273041,-0.13103361,-1.27079475,-0.85533589,0.99991,0.00122616,0.0110807,0.00747636,-0.00900419,-0.00274063,0.00832065,0,0,0,0,1,2
2,0.2801,27,-0.16021927,-0.97107446,-0.16436391,-0.80123776,0.93406725,-1.07106555,-59.74861145,-9.06167793,-88.599823,-0.18121026,1.09078705,7.137784,0.99801338,0.00217075,-0.00940186,-0.06226075,0.01136305,0.01308557,-0.00206097,0,0,0,0,1,2
1,0.29,29,0.0859144,-0.99686342,0.06522998,-0.02961677,-0.11259545,-1.44723773,-46.97456741,-0.02923122,-99.09383392,0.12397575,-0.13824412,-0.04610657,0.99999863,-0.00108141,0.00120684,0.00040105,-0.01850555,-0.00951575,0.00253374,0,0,0,0,1,2
4,0.29,29,0.06757035,-0.92092472,-0.37855661,0.81811553,0.41120589,0.51288092,-23.70651817,-36.24671173,-72.23033905,0,0,0,1,0,0,0,0,0,0,0,0,0,0,1,2
3,0.29,27,0.01507761,-0.99993193,-0.04643644,-0.082776,-0.15101399,0.72151709,-23.56036186,24.61268616,-77.14118958,-0.13186526,-1.27807403,-0.8564871,0.99990916,0.001234,0.01114415,0.00748655,-0.00830045,-0.0000189,0.00127359,0,0,0,0,1,2
2,0.2901,28,-0.16279094,-0.96831715,-0.16794927,-0.81900251,1.19466388,-1.15519094,-59.54399109,-9.12014008,-88.04443359,-0.19074167,1.10430038,7.1459403,0.99800748,0.00226178,-0.00951421,-0.06233269,0.01447369,0.00923204,-0.00367396,0,0,0,0,1,2
1,0.3,30,0.08701032,-0.99239141,0.07596931,0.05509071,0.14881068,-1.17880464,-46.97456741,-0.02923122,-99.09383392,0.12467068,-0.12659933,-0.04378442,0.99999875,-0.00108753,0.0011052,0.00038089,-0.01963519,0.00151998,-0.00106157,0,0,0,0,1,2
4,0.3,30,0.06350639,-0.91979462,-0.37683749,0.64381868,0.09036916,0.05707709,-23.70651817,-36.24671173,-72.23033905,0,0,0,1,0,0,0,0,0,0,0,0,0,0,1,2
3,0.3,28,0.00822576,-0.99573553,-0.04025395,-0.13552259,-0.37618554,0.70051777,-22.9465065,23.7357502,-77.11195374,-0.13323595,-1.28523576,-0.85987258,0.99990821,0.00124675,0.01120651,0.00751629,-0.00171041,0.00599484,-0.00338528,0,0,0,0,1,2
2,0.3001,29,-0.15707517,-0.96847057,-0.17227775,-0.60381454,1.38192689,-1.13782644,-59.45629883,-9.20783424,-88.80444336,-0.19844776,1.11798191,7.15631056,0.99800062,0.0023372,-0.00962897,-0.06242379,0.00892287,0.00514367,-0.00372611,0,0,0,0,1,2
1,0.31,31,0.07950507,-0.99416822,0.08451823,0.2492207,0.20287861,-0.79772842,-46.94533539,1.63694823,-99.29844666,0.12734158,-0.11879716,-0.04134287,0.99999881,-0.00111089,0.0010371,0.00035963,-0.01182013,0.00987686,0.00080163,0,0,0,0,1,2
4,0.31,31,0.05889287,-0.92045271,-0.37355644,0.91424054,-0.40270466,-0.35907441,-23.70651817,-36.30517197,-71.76264191,0,0,0,1,0,0,0,0,0,0,0,0,0,0,1,2
3,0.31,29,0.00132958,-0.99439937,-0.04145112,-0.25985599,0.07386702,0.72401935,-23.64805603,24.20344925,-76.90733337,-0.13581729,-1.29243112,-0.85872233,0.99990761,0.00126964,0.01126914,0.00750658,0.00502419,0.00478587,-0.00486392,0,0,0,0,1,2
2,0.3101,30,-0.15228988,-0.96882159,-0.17957681,-0.67454076,1.93567204,-1.20044935,-59.45629883,-9.20783424,-88.80444336,-0.24943574,1.10207307,7.18016052,0.99798775,0.00277457,-0.00946206,-0.06263556,0.00405409,-0.00164448,-0.00291358,0,0,0,0,1,2
1,0.32,32,0.06747096,-0.99741203,0.08380927,0.1937374,0.21936943,-0.51992905,-46.59456253,1.05232382,-99.3276825,0.21646693,-0.17933616,-0.05012163,0.9999969,-0.00188834,0.00156583,0.00043444,0.00022523,0.00851058,0.0031397,0,0,0,0,1,2
4,0.32,32,0.05500225,-0.92278367,-0.37688479,0.98510343,-0.38447046,-0.4126119,-23.76498032,-35.98363113,-71.99649048,0,0,0,1,0,0,0,0,0,0,0,0,0,0,1,2
3,0.32,30,0.00632593,-0.99469066,-0.04164252,-0.20581348,0.26370037,0.83141959,-23.64805603,24.20344925,-76.90733337,-0.13785225,-1.30060899,-0.85564375,0.9999069,0.00128762,0.0113404,0.00748,-0.00009775,0.00464625,-0.0044165,0,0,0,0,1,2
1,0.33,33,0.05388551,-1.00699687,0.08121467,0.09823754,0.60036284,-0.31493038,-46.71148682,0.67231804,-99.56153107,0.21786831,-0.17665415,-0.04398177,0.99999702,-0.00190066,0.00154232,0.00038088,0.0136322,0.00407079,0.01154572,0,0,0,0,1,2
4,0.33,33,0.05622126,-0.92180037,-0.38181171,0.80327094,0.14605437,-0.17217469,-23.76498032,-36.18824768,-72.34726715,0,0,0,1,0,0,0,0,0,0,0,0,0,0,1,2
3,0.33,31,0.01210719,-1.00057364,-0.04419122,-0.25848648,0.00388099,0.80990356,-22.47880745,23.76498032,-77.49195862,-0.13086078,-1.23799026,-0.85606599,0.99991304,0.00122258,0.01079445,0.00748241,-0.00553847,0.0023563,0.0017345,0,0,0,0,1,2
1,0.34,34,0.04516263,-1.01417398,0.0795562,0.4599947,0.48328084,-0.70253706,-47.17918777,1.19848001,-100.0876923,0.22279763,-0.17001854,-0.03895798,0.99999696,-0.00194377,0.00148435,0.00033709,0.02291069,0.00182566,0.0179577,0,0,0,0,1,2
4,0.34,34,0.06502208,-0.92020828,-0.38635761,0.94141054,0.59165144,0.02494075,-23.56036186,-35.89593506,-71.67494965,0,0,0,1,0,0,0,0,0,0,0,0,0,0,1,2
3,0.34,32,0.01013804,-1.00439584,-0.04793587,-0.36317268,-0.4815242,0.81953889,-23.47266769,24.46652985,-77.75504303,-0.13453348,-1.24639809,-0.86039227,0.9999119,0.00125559,0.01086753,0.00752059,-0.0026714,-0.00128298,0.00564179,0,0,0,0,1,2
1,0.35,35,0.05315449,-1.01155281,0.07356799,-0.3234362,0.28328067,-1.03260863,-47.17918777,1.19848001,-100.0876923,0.21981841,-0.15994066,-0.03512808,0.9999972,-0.00191785,0.00139633,0.00030387,0.0148864,-0.00396388,0.01547291,0,0,0,0,1,2
4,0.35,35,0.0708757,-0.92092377,-0.38715458,1.08182633,0.76274657,0.12974693,-23.56036186,-35.89593506,-71.67494965,0,0,0,1,0,0,0,0,0,0,0,0,0,0,1,2
3,0.35,33,0.00385769,-1.00663042,-0.04895017,-0.45120278,-0.72408563,0.79810989,-22.85881233,25.05115509,-76.73194885,-0.1390873,-1.25469995,-0.86710954,0.99991059,0.00129651,0.01093959,0.00757971,0.00352389,-0.00212599,0.00773934,0,0,0,0,1,2
2,0.3501,31,-0.1637082,-0.97250843,-0.1654647,-0.94441295,1.1965636,-1.18877184,-59.31014252,-10.11400127,-88.30751038,-0.29003271,1.15954554,7.21670341,0.9979617,0.0031627,-0.00993939,-0.06295811,0.0157214,0.01414284,0.00013959,0,0,0,0,1,2
4,0.36,36,0.07367676,-0.91863692,-0.37638575,1.0272795,0.91615129,0.23841698,-23.35574341,-36.83133698,-72.14264679,0,0,0,1,0,0,0,0,0,0,0,0,0,0,1,2
1,0.36,36,0.07792255,-0.99907249,0.07040552,-0.78940642,0.22553456,-0.82361549,-47.12072372,1.05232382,-99.76615143,0.2121343,-0.15190332,-0.03170614,0.99999744,-0.00185085,0.00132612,0.00027423,-0.01054821,-0.00610962,0.00455416,0,0,0,0,1,2
3,0.36,34,0.00446611,-1.00053632,-0.0477457,-0.25670713,-0.94879556,0.77830982,-22.9465065,24.90499878,-77.17041779,-0.14172006,-1.26291466,-0.87614256,0.99990928,0.00132089,0.011011,0.00765887,0.00259574,-0.00113008,0.00162149,0,0,0,0,1,2
2,0.3601,32,-0.15668158,-0.96929532,-0.16604698,-0.96102446,1.83487618,-1.19854903,-59.31014252,-10.11400127,-88.30751038,-0.17098358,1.09877956,7.23219204,0.99796122,0.00209383,-0.00947531,-0.06308219,0.00923249,0.01263245,-0.00406011,0,0,0,0,1,2
1,0.37,37,0.09527601,-0.990444,0.07530829,-0.3770273,-0.01330054,-0.38575897,-47.14995575,0.96463019,-99.73691559,0.21431705,0.22434461,-0.03850838,0.99999636,-0.00187092,-0.00195714,0.00033971,-0.0267155,-0.00049734,-0.00246394,0,0,0,0,1,2
4,0.37,37,0.07270464,-0.91367126,-0.37009919,0.67297179,0.88306099,0.10582557,-23.38497543,-36.50979233,-72.37649536,0,0,0,1,0,0,0,0,0,0,0,0,0,0,1,2
3,0.37,35,0.00411168,-0.99977696,-0.04586982,-0.39922124,-1.17330337,0.65258098,-23.70651817,24.6711483,-77.84273529,-0.14578818,-1.26998389,-0.88745588,0.99990773,0.00135795,0.01107228,0.00775805,0.00279136,0.00076743,0.00077337,0,0,0,0,1,2
2,0.3701,33,-0.14816727,-0.96949929,-0.1722056,-0.79874957,2.29767489,-1.14241219,-59.98246002,-8.88629055,-88.68751526,-0.18196602,1.11414552,7.25110054,0.9979493,0.00219951,-0.00960272,-0.06324789,-0.00010381,0.0050842,-0.00424041,0,0,0,0,1,2
1,0.38,38,0.10092715,-0.99484462,0.07666714,0.77350372,-0.50403911,-0.10113926,-46.71148682,-2.01695418,-99.61999512,0.22166392,0.22574092,-0.0439828,0.99999613,-0.00193513,-0.00196921,0.00038763,-0.02712824,0.00039036,0.00241092,0,0,0,0,1,2
4,0.38,38,0.06820052,-0.9101885,-0.37115547,0.99597716,0.39989454,0.15986364,-23.67728615,-36.18824768,-71.87957001,0,0,0,1,0,0,0,0,0,0,0,0,0,0,1,2
3,0.38,36,0.00083159,-0.99811673,-0.04386768,-0.43334043,-1.62392879,0.66307557,-23.70651817,24.6711483,-77.84273529,-0.08345743,-1.35248184,-0.89989382,0.99989921,0.00082091,0.01179627,0.00786102,0.00556988,0.00247437,-0.001058,0,0,0,0,1,2
2,0.3801,34,-0.1336938,-0.97331572,-0.18050416,-0.7105009,1.57139468,-1.08201134,-59.74861145,-8.97398376,-88.74597931,-0.19100733,1.12761438,7.26323271,0.9979412,0.00228671,-0.00971478,-0.06335443,-0.01499559,-0.0022347,-0.00151797,0,0,0,0,1,2
1,0.39,39,0.09655061,-0.99782854,0.075422,0.4922874,-0.95918673,-0.01193292,-46.21455765,1.05232382,-99.70768738,0.22586392,0.22659534,-0.05385787,0.99999601,-0.00197196,-0.00197648,0.00047389,-0.0225485,-0.00117765,0.00498466,0,0,0,0,1,2
4,0.39,39,0.06413218,-0.91255718,-0.37180048,1.47843623,-0.06621515,0.24568796,-23.67728615,-36.18824768,-71.87957001,0,0,0,1,0,0,0,0,0,0,0,0,0,0,1,2
3,0.39,37,0.000791,-0.99816036,-0.04078172,-0.46876058,-1.34708858,0.70180523,-23.29728127,23.38497543,-77.22888184,-0.08823004,-1.36011541,-0.91289312,0.99989748,0.00086443,0.01186245,0.00797498,0.00449273,0.00476727,-0.00112767,0,0,0,0,1,2
2,0.3901,35,-0.12652558,-0.97523224,-0.18619943,-0.58639789,0.7574749,-0.97059703,-60.24554062,-10.37708282,-88.57059479,-0.19765453,1.13852608,7.26786661,0.99793756,0.00235102,-0.00980604,-0.06339545,-0.02234056,-0.00735758,0.00013419,0,0,0,0,1,2
1,0.4,40,0.08093061,-1.0034976,0.07839055,-0.03997286,-1.29545522,-0.12403622,-46.8284111,1.54925454,-99.73691559,0.22451328,0.22882292,-0.06661844,0.99999595,-0.0019604,-0.00199571,0.00058527,-0.00652767,0.00136174,0.00975017,0,0,0,0,1,2
4,0.4,40,0.06313133,-0.9172172,-0.37826788,1.30370474,-0.39368075,0.20856142,-23.70651817,-35.95439911,-72.55188751,0,0,0,1,0,0,0,0,0,0,0,0,0,0,1,2
3,0.4,38,0.0095979,-0.99814272,-0.04527703,-0.43209702,-1.17475009,0.82624501,-22.91727448,24.87576675,-78.07658386,-0.0926039,-1.36890674,-0.92412621,0.99989575,0.00090437,0.01193877,0.00807351,-0.00445173,0.00036215,-0.00068833,0,0,0,0,1,2
2,0.4001,36,-0.13152823,-0.97663212,-0.18480816,-0.62482798,-0.63990378,-0.91673827,-60.24554062,-10.37708282,-88.57059479,-0.20265935,1.1463846,7.25897884,0.99794167,0.00239819,-0.00987189,-0.06331856,-0.01744431,-0.00565243,0.00209407,0,0,0,0,1,2
1,0.41,41,0.06728586,-1.0091821,0.08233827,0.52229464,-1.68821216,-0.52328855,-46.8284111,1.54925454,-99.73691559,0.2285015,0.23533449,-0.08337509,0.99999565,-0.00199554,-0.00205222,0.00073168,0.00758233,0.00487206,0.01474024,0,0,0,0,1,2
4,0.41,41,0.06430689,-0.92179388,-0.37753409,1.05668879,-0.52915394,0.01944744,-23.76498032,-35.60362244,-72.20111084,0,0,0,1,0,0,0,0,0,0,0,0,0,0,1,2
3,0.41,39,0.01293947,-1.0039649,-0.04812337,-0.59077841,-1.64237809,0.76634765,-23.2095871,24.6711483,-78.01811981,-0.09860256,-1.3773191,-0.9400053,0.99989372,0.00095897,0.01201162,0.00821275,-0.00776982,-0.00213572,0.00535186,0,0,0,0,1,2
2,0.4101,37,-0.14265394,-0.97873867,-0.17437103,-0.71413249,-0.97033989,-0.74489379,-60.33323669,-8.21397209,-88.89213562,-0.12707554,1.14805472,7.23988438,0.99795347,0.00173922,-0.00992849,-0.06314575,-0.00642071,0.00472504,0.00418945,0,0,0,0,1,2
1,0.42,42,0.05765123,-1.01562893,0.07738151,1.17558277,-2.16672707,-0.99557424,-46.71148682,0.76001167,-99.35691071,0.1744519,0.03868815,-0.11169088,0.99999839,-0.00152271,-0.00033613,0.0009752,0.01688187,-0.00041687,0.02012101,0,0,0,0,1,2
4,0.42,42,0.06510316,-0.92316377,-0.37968642,0.89850867,-0.68139017,-0.18933003,-23.12189484,-36.01286316,-71.58725739,0,0,0,1,0,0,0,0,0,0,0,0,0,0,1,2
3,0.42,40,0.01424757,-1.00425482,-0.05314786,-0.60674828,-2.09324694,0.81169492,-22.91727448,25.25577354,-77.72580719,-0.1047857,-1.38638961,-0.96036845,0.99989128,0.00101572,0.01209014,0.00839114,-0.00921406,-0.00703074,0.00590466,0,0,0,0,1,2
2,0.4201,38,-0.15810204,-0.97566402,-0.16517094,-0.64118522,-0.76827794,-0.55104613,-60.21630859,-10.26015759,-88.95059967,-0.13215384,1.1520952,7.23038197,0.99795824,0.00178485,-0.00996103,-0.06306345,0.00961767,0.0122653,0.00219653,0,0,0,0,1,2
1,0.43,43,0.062484,-1.00716054,0.06976351,0.51314974,-2.10482335,-1.14396119,-46.47763824,1.1692487,-99.44460297,0.17814127,0.05168862,-0.13211904,0.99999809,-0.00155509,-0.00044927,0.00115366,0.00892751,-0.00666889,0.01147192,0,0,0,0,1,2
4,0.43,43,0.06836037,-0.92092609,-0.38276494,0.79494804,-0.98592615,-0.57655728,-23.32651329,-37.47442245,-72.02572632,0,0,0,1,0,0,0,0,0,0,0,0,0,0,1,2
3,0.43,41,0.00816347,-1.00235677,-0.05120073,-0.55204356,-2.21524358,0.91444451,-22.91727448,25.25577354,-77.72580719,-0.13399397,-1.35672271,-0.98383933,0.99989223,0.00127084,0.01182887,0.00859874,-0.00318784,-0.00496193,0.00374731,0,0,0,0,1,2
2,0.4301,39,-0.16497202,-0.96971232,-0.16365807,-0.74537861,0.38459259,-0.39651799,-59.83630371,-8.91552162,-88.42443848,-0.13999067,1.15668178,7.23215675,0.99795669,0.00185577,-0.00999663,-0.0630796,0.01749389,0.01283109,-0.0026853,0,0,0,0,1,2
1,0.44,44,0.07758982,-0.99342483,0.07333349,0.18184797,-1.46589839,-0.97959566,-47.23764801,1.08155513,-99.00613403,0.1789635,0.06256557,-0.14608569,0.99999785,-0.00156244,-0.000544,0.00127569,-0.00687148,-0.00213231,-0.00088127,0,0,0,0,1,2
4,0.44,44,0.06780557,-0.92013669,-0.38263306,1.04555833,-1.24012887,-0.83087516,-23.32651329,-37.47442245,-72.02572632,0,0,0,1,0,0,0,0,0,0,0,0,0,0,1,2
3,0.44,42,0.00714026,-1.00130022,-0.04902118,-0.481098,-2.12876821,0.95084614,-23.23881912,24.9342289,-77.8719635,-0.13891768,-1.36719561,-1.00452185,0.99988961,0.00131674,0.01191965,0.00877982,-0.0018588,-0.00243661,0.00255929,0,0,0,0,1,2
2,0.4401,40,-0.1630764,-0.96985698,-0.16281851,-0.61794811,1.48736918,-0.41985238,-59.80707169,-8.74013424,-88.33674622,-0.14816278,1.16348112,7.24480486,0.997949,0.00193179,-0.01005113,-0.06319051,0.01572739,0.01381568,-0.00300763,0,0,0,0,1,2
1,0.45,45,0.08284786,-0.99122995,0.07951298,0.27866068,-0.64811182,-0.93299651,-46.21455765,-0.87693655,-99.50306702,0.18132688,0.07235914,-0.15202057,0.99999768,-0.00158321,-0.00062935,0.00132763,-0.01205952,0.00415875,-0.00225001,0,0,0,0,1,2
4,0.45,45,0.06301417,-0.92052817,-0.37666458,1.32886493,-1.169402,-0.90546608,-23.70651817,-36.21747971,-72.20111084,0,0,0,1,0,0,0,0,0,0,0,0,0,0,1,2
3,0.45,43,0.00337903,-0.99911189,-0.04592933,-0.48003596,-1.93903399,1.05798936,-23.26804924,24.84653664,-77.93042755,-0.14381719,-1.37866926,-1.02324569,0.99988687,0.00136233,0.01201917,0.00894383,0.00164291,0.00064532,0.00013341,0,0,0,0,1,2
2,0.4501,41,-0.1543256,-0.97164589,-0.16948777,-0.23953977,2.49866033,-0.30714968,-59.80707169,-8.74013424,-88.33674622,-0.15408711,1.17098367,7.26809645,0.99793541,0.00198958,-0.0101128,-0.06339392,0.00673389,0.0076847,-0.00157702,0,0,0,0,1,2
1,0.46,46,0.07740774,-0.99673611,0.08410821,0.05745217,-0.26864532,-0.65790719,-46.21455765,-0.87693655,-99.50306702,0.18173003,0.07912167,-0.15423456,0.99999768,-0.00158682,-0.00068833,0.00134704,-0.0060855,0.00831625,0.00318175,0,0,0,0,1,2
4,0.46,46,0.05981365,-0.91855013,-0.37456748,1.39852655,-1.01488364,-0.85179186,-23.18035698,-36.45132828,-72.31803131,0,0,0,1,0,0,0,0,0,0,0,0,0,0,1,2
3,0.46,44,0.003618,-0.99855852,-0.04653528,-0.62196648,-1.74859679,1.04276276,-23.50189972,24.43729782,-78.19351196,-0.15012574,-1.38989854,-1.04004931,0.99988431,0.00142002,0.01211645,0.00909123,0.00118858,0.00011327,-0.00038057,0,0,0,0,1,2
2,0.4601,42,-0.1446483,-0.97390509,-0.17356065,-0.43549645,2.89691973,-0.30034462,-60.01169205,-8.85705948,-89.12598419,-0.15836188,1.23772609,7.2823658,0.99792129,0.00206504,-0.01069141,-0.06351897,-0.00289988,0.00419272,-0.00029291,0,0,0,0,1,2
1,0.47,47,0.06826082,-0.99906522,0.08554786,-0.37718374,0.02149408,-0.43637481,-46.88687515,-2.01695418,-99.41537476,0.29229382,0.02201172,-0.15596221,0.99999583,-0.002551,-0.00018862,0.00136151,0.00302677,0.00912403,0.00496693,0,0,0,0,1,2
4,0.47,47,0.05685399,-0.91884965,-0.3750622,1.50440764,-0.96484458,-0.73100507,-23.56036186,-37.94212341,-72.2888031,0,0,0,1,0,0,0,0,0,0,0,0,0,0,1,2
3,0.47,45,0.00483268,-0.99655735,-0.04672071,-0.39067057,-2.09519887,1.10824311,-23.64805603,25.10961723,-77.93042755,-0.15412669,-1.40195096,-1.0603354,0.99988127,0.00145805,0.01222104,0.00926879,-0.00028662,-0.00008032,-0.00233024,0,0,0,0,1,2
2,0.4701,43,-0.13932738,-0.97736961,-0.18157724,-0.4181999,2.3773911,-0.20178752,-60.24554062,-9.82168961,-88.7167511,-0.1658913,1.24397933,7.30436468,0.99790835,0.00213614,-0.01074128,-0.0637113,-0.00807107,-0.00300589,0.00359081,0,0,0,0,1,2
1,0.48,48,0.06455232,-1.00499475,0.0863559,-0.21936525,0.37103426,-0.63231379,-46.79918289,1.25694239,-99.3276825,0.29038471,0.02802508,-0.15163064,0.99999589,-0.0025344,-0.00024121,0.00132384,0.00642314,0.00805656,0.01067148,0,0,0,0,1,2
4,0.48,48,0.05753651,-0.92002654,-0.37361306,1.80581594,-0.96580964,-0.63279861,-22.88804436,-36.68518066,-71.85033417,0,0,0,1,0,0,0,0,0,0,0,0,0,0,1,2
3,0.48,46,0.00434126,-1.0004096,-0.04816908,-0.54887611,-2.44197321,1.10230482,-23.23881912,25.43115997,-77.46273041,-0.17889731,-1.38159442,-1.08541894,0.99988115,0.00167519,0.01204105,0.00949004,0.00024887,-0.00118917,0.00156832,0,0,0,0,1,2
2,0.4801,44,-0.13962936,-0.97842777,-0.18019807,-0.67230028,1.09065771,-0.38898593,-60.18708038,-8.97398376,-89.41829681,-0.17400749,1.24976623,7.31312513,0.99790275,0.00221086,-0.010787,-0.06378839,-0.00780347,-0.00132234,0.00443039,0,0,0,0,1,2
1,0.49,49,0.06597836,-1.01343238,0.08357549,0.21179014,0.35888478,-0.86090815,-46.97456741,0.49693072,-99.8830719,0.29280186,0.03633131,-0.14754313,0.99999583,-0.00255558,-0.00031376,0.00128836,0.00570715,0.00464854,0.01896442,0,0,0,0,1,2
4,0.49,49,0.05951088,-0.92240399,-0.37333757,1.73426986,-0.89783043,-0.57767206,-22.88804436,-36.68518066,-71.85033417,0,0,0,1,0,0,0,0,0,0,0,0,0,0,1,2
3,0.49,47,-0.00061259,-1.0021894,-0.05124361,-0.37215355,-2.26868057,1.14051211,-23.23881912,25.43115997,-77.46273041,-0.18274234,-1.3940686,-1.10742164,0.99987787,0.0017121,0.01214924,0.0096826,0.00546371,-0.00384823,0.00333348,0,0,0,0,1,2
2,0.4901,45,-0.15619157,-0.97937888,-0.17148107,-0.65646136,0.21215089,-0.43446353,-59.45629883,-8.82782841,-89.09675598,-0.18071325,1.25441217,7.31330299,0.99790204,0.00227186,-0.01082372,-0.0637906,0.00871358,0.00755511,0.00661951,0,0,0,0,1,2
1,0.5,50,0.0644891,-1.01286244,0.07890803,-0.12445363,0.16404599,-1.12498844,-45.77608871,0.70154923,-100.3800049,0.29173702,0.04741935,-0.14495049,0.99999589,-0.0025464,-0.00041059,0.00126598,0.0073099,0.00003104,0.0179556,0,0,0,0,1,2
4,0.5,50,0.06377167,-0.92389995,-0.37066928,1.27135098,-0.67473465,-0.56365633,-23.7357502,-36.15901566,-72.2888031,0,0,0,1,0,0,0,0,0,0,0,0,0,0,1,2
3,0.5,48,-0.0083057,-1.00199044,-0.05340645,-0.11092314,-1.57398748,0.99567968,-23.44343758,24.46652985,-78.13504791,-0.18392424,-1.40476155,-1.1226418,0.99987543,0.00172494,0.01224222,0.00981566,0.01295109,-0.00597246,0.00301195,0,0,0,0,1,2
2,0.5001,46,-0.17028469,-0.97282606,-0.16211049,-0.85355526,0.44141585,-0.58693534,-59.45629883,-8.82782841,-89.09675598,-0.18963742,1.26097918,7.31510973,0.99790025,0.0023534,-0.0108759,-0.06380723,0.0240673,0.01575304,0.00099938,0,0,0,0,1,2
1,0.51,51,0.06932206,-1.00321758,0.07057913,-0.33940193,0.05705811,-0.86781293,-45.77608871,0.70154923,-100.3800049,0.28843006,0.05602531,-0.14347537,0.99999601,-0.00251763,-0.00048576,0.00125328,0.00194744,-0.00753551,0.00809331,0,0,0,0,1,2
4,0.51,51,0.06747076,-0.9242062,-0.37036487,1.03971446,-0.55622256,-0.45182019,-23.76498032,-36.18824768,-72.14264679,0,0,0,1,0,0,0,0,0,0,0,0,0,0,1,2
3,0.51,49,-0.01358897,-1.00107419,-0.0503711,-0.23674951,-0.88084781,0.9532643,-23.18035698,24.4080677,-78.16427612,-0.18632406,-1.41469991,-1.13091755,0.99987364,0.00174761,0.01232861,0.00988826,0.01802149,-0.00294999,0.0018146,0,0,0,0,1,2
2,0.5101,47,-0.17325486,-0.96743321,-0.16153029,-0.83403802,1.32147002,-0.62920845,-60.30400467,-8.74013424,-88.77520752,-0.02801211,0.98642915,7.370471,0.99789506,0.00079722,-0.0085746,-0.06427484,0.0268008,0.01478576,-0.00385727,0,0,0,0,1,2
1,0.52,52,0.07485475,-0.99376625,0.07170907,-0.16241491,0.00658096,-0.38665649,-45.74685669,0.90616781,-99.53230286,0.23279731,0.13098685,-0.14443961,0.99999648,-0.00203298,-0.00114051,0.00126279,-0.00381588,-0.00543244,-0.00084293,0,0,0,0,1,2
4,0.52,52,0.06617365,-0.92388892,-0.37133789,0.71999717,-0.50605631,-0.39168918,-23.94036865,-35.95439911,-71.90879822,0,0,0,1,0,0,0,0,0,0,0,0,0,0,1,2
2,0.5201,48,-0.16394937,-0.96831429,-0.16770241,-0.68951416,2.13180184,-0.69112813,-59.36860657,-9.26629639,-88.62905121,-0.03780449,0.99701482,7.38878775,0.99788398,0.00088982,-0.00866115,-0.06443506,0.01376975,0.00680478,-0.00356404,0,0,0,0,1,2
1,0.53,53,0.0774989,-0.99286431,0.07458391,0.64354712,-0.17547196,-0.01889287,-47.0914917,1.34463608,-99.61999512,0.23908719,0.13131297,-0.14662255,0.99999642,-0.00208789,-0.00114325,0.00128191,-0.00554331,-0.00185406,-0.0013489,0,0,0,0,1,2
4,0.53,53,0.065129,-0.92493844,-0.37037671,0.57822543,-0.52390093,-0.3715207,-23.94036865,-35.95439911,-71.90879822,0,0,0,1,0,0,0,0,0,0,0,0,0,0,1,2
2,0.5301,49,-0.15062104,-0.97068471,-0.17397331,-0.85115737,2.20560408,-0.84581399,-59.39783478,-10.1432333,-88.599823,-0.04926715,1.00925779,7.40727615,0.99787247,0.00099794,-0.00876115,-0.06459691,0.00025629,0.00123954,-0.0024075,0,0,0,0,1,2
1,0.54,54,0.07439891,-0.99711889,0.07954136,0.46868268,-0.62954128,0.25982779,-47.44226837,1.2277112,-99.18152618,0.24329703,0.12920797,-0.1534123,0.99999624,-0.00212467,-0.00112471,0.00134116,-0.00214994,0.0026802,0.00302738,0,0,0,0,1,2
3,0.54,50,0.0007292,-0.99995816,-0.05058237,-0.03411967,-0.52914107,0.35103557,-23.15112495,24.84653664,-78.01811981,-0.23316622,-1.51047838,-1.1352669,0.99986178,0.00216506,0.0131602,0.00993285,0.00196677,-0.00238069,0.00117124,0,0,0,0,1,2
4,0.54,54,0.06216798,-0.92322701,-0.37096691,0.42088482,-0.8179453,-0.33861214,-23.32651329,-36.91902924,-71.99649048,0,0,0,1,0,0,0,0,0,0,0,0,0,0,1,2
2,0.5401,50,-0.13875933,-0.97335041,-0.18042527,-0.81605464,1.68628669,-0.76492393,-60.18708038,-8.38935947,-88.89213562,-0.05963165,1.01978326,7.42092609,0.99786389,0.00109518,-0.00884684,-0.06471656,-0.01187228,-0.0044525,-0.00068636,0,0,0,0,1,2
1,0.55,55,0.06880713,-1.00194359,0.08547939,-0.02781682,-1.05245018,0.35185105,-47.23764801,1.43232965,-98.8015213,0.24224377,0.12650801,-0.16412555,0.99999613,-0.00211555,-0.00110096,0.00143459,0.00374623,0.0082478,0.00786758,0,0,0,0,1,2
3,0.55,51,0.0005478,-0.99929798,-0.05021945,0.07201472,-0.84049731,0.31213173,-22.97573853,24.17421722,-77.81350708,-0.23246843,-1.51400375,-1.14353502,0.99986064,0.00216023,0.01319086,0.01000497,0.00206766,-0.00205469,0.00049246,0,0,0,0,1,2
4,0.55,55,0.05760366,-0.9215734,-0.37186438,0.42423543,-1.23066461,-0.41601896,-22.65419388,-36.65594864,-71.90879822,0,0,0,1,0,0,0,0,0,0,0,0,0,0,1,2
2,0.5501,51,-0.13323803,-0.97489011,-0.18616918,-0.87325507,0.24073733,-0.86872846,-60.18708038,-8.38935947,-88.89213562,-0.06839406,1.02875912,7.42026711,0.99786347,0.0011765,-0.00892006,-0.06471152,-0.0175691,-0.00966652,0.00088419,0,0,0,0,1,2
1,0.56,56,0.06591934,-1.00651395,0.08567392,0.11883575,-1.24172556,0.17080398,-47.23764801,1.43232965,-98.8015213,0.24252895,0.12576093,-0.17669271,0.99999607,-0.00211815,-0.0010942,0.00154425,0.00691267,0.00810895,0.0122273,0,0,0,0,1,2
3,0.56,52,0.00000661,-0.99937487,-0.04912918,0.26587683,-1.34169912,0.20127991,-23.53113174,24.34960556,-77.52119446,-0.22984195,-1.51665676,-1.1569128,0.99985921,0.00213909,0.01321399,0.01012143,0.00255502,-0.00099796,0.00050664,0,0,0,0,1,2
4,0.56,56,0.05667146,-0.92153382,-0.37473172,0.42503688,-1.33439672,-0.4004809,-23.41420555,-35.57439423,-72.34726715,0,0,0,1,0,0,0,0,0,0,0,0,0,0,1,2
2,0.5601,52,-0.14042909,-0.97865182,-0.18135062,-0.94699758,-0.77559578,-0.87990928,-59.74861145,-8.97398376,-89.00906372,-0.05156451,1.06267035,7.39855385,0.99787319,0.00104735,-0.00922506,-0.06452108,-0.01070885,-0.00423451,0.00490707,0,0,0,0,1,2
1,0.57,57,0.06467191,-1.01158345,0.08113999,0.35837236,-1.58609271,-0.25882,-46.03916931,-0.49693072,-99.85384369,0.26581439,0.02584474,-0.19105875,0.99999595,-0.00232004,-0.00022167,0.00166782,0.00807208,0.00309987,0.01685566,0,0,0,0,1,2
3,0.57,53,0.00061889,-0.99998319,-0.04882744,0.38826248,-1.21964884,0.1341539,-23.26804924,25.10961723,-77.46273041,-0.2259897,-1.51857901,-1.16914368,0.99985802,0.00210706,0.01323088,0.01022774,0.00192172,-0.00072624,0.00111922,0,0,0,0,1,2
4,0.57,57,0.0602469,-0.92299187,-0.37480864,0.7093094,-1.40354443,-0.3555001,-22.50803757,-35.48669815,-72.14264679,0,0,0,1,0,0,0,0,0,0,0,0,0,0,1,2
2,0.5701,53,-0.15573372,-0.97687715,-0.16683573,-1.12503505,-0.84740442,-0.66910577,-60.15784836,-9.26629639,-88.42443848,-0.06127075,1.06774843,7.38726521,0.99787903,0.00113381,-0.00926392,-0.06442356,0.0055558,0.00958033,0.00323504,0,0,0,0,1,2
1,0.58,58,0.0657044,-1.0111928,0.07275313,-0.28395146,-1.6803081,-0.44769004,-47.23764801,1.2277112,-99.18152618,0.26183268,0.03160584,-0.20722477,0.99999571,-0.00228541,-0.00027168,0.001809,0.00571046,-0.00549403,0.01593061,0,0,0,0,1,2
3,0.58,54,-0.00109883,-1.00062501,-0.05069921,0.36875454,-0.92448485,0.05154281,-23.50189972,24.78807259,-77.52119446,-0.25375906,-1.55191958,-1.17746103,0.99985278,0.00235329,0.01351913,0.01030412,0.00349677,-0.00248784,0.00179767,0,0,0,0,1,2
4,0.58,58,0.06406674,-0.92249537,-0.37528655,0.40656331,-1.24905264,-0.3461771,-22.50803757,-35.48669815,-72.14264679,0,0,0,1,0,0,0,0,0,0,0,0,0,0,1,2
2,0.5801,54,-0.16296026,-0.97101396,-0.16326141,-1.12195385,0.27000675,-0.51615185,-59.86553574,-8.82782841,-89.30137634,-0.07263158,1.07330751,7.38709307,0.99787855,0.00123586,-0.00930595,-0.06442298,0.01384716,0.01224475,-0.00186021,0,0,0,0,1,2
1,0.59,59,0.07564323,-1.00145149,0.07324103,-0.40050656,-0.98665929,-0.38673332,-47.38380432,1.52002335,-99.56153107,0.25716326,0.03622031,-0.2164612,0.99999565,-0.00224476,-0.00031184,0.00188968,-0.00479092,-0.00419899,0.00696716,0,0,0,0,1,2
3,0.59,55,0.00009796,-1.00167131,-0.04501324,0.24301739,-0.7331863,-0.0678995,-23.35574341,24.81730461,-77.08272552,-0.25134853,-1.55159545,-1.18487191,0.99985218,0.00233311,0.01351637,0.0103685,0.00189417,0.00358845,0.0026394,0,0,0,0,1,2
4,0.59,59,0.06585219,-0.91993356,-0.37549511,0.19180734,-1.02759635,-0.19792446,-22.62496376,-36.21747971,-72.25957489,0,0,0,1,0,0,0,0,0,0,0,0,0,0,1,2
2,0.5901,55,-0.15900588,-0.9710595,-0.16588397,-1.01228309,1.23317468,-0.4535521,-60.01169205,-8.88629055,-89.09675598,-0.08434201,1.07996488,7.39655972,0.99787259,0.00134235,-0.00935723,-0.06450637,0.00997186,0.00987482,-0.00202104,0,0,0,0,1,2
1,0.6,60,0.0796258,-0.99547857,0.07880104,0.28659075,-0.14464991,-0.29182649,-47.06226349,1.54925454,-99.91230774,0.25994056,0.03924091,-0.21787079,0.99999559,-0.00226905,-0.00033813,0.00190205,-0.00908634,0.00177582,0.00170543,0,0,0,0,1,2
3,0.6,56,-0.00136106,-1.00192261,-0.04452606,0.11841844,-0.73286468,-0.13803323,-23.35574341,24.81730461,-77.08272552,-0.25016901,-1.55057788,-1.1923089,0.9998517,0.0023236,0.01350745,0.01043323,0.00337654,0.00406117,0.00282591,0,0,0,0,1,2
4,0.6,60,0.06517736,-0.92037559,-0.37440357,0.33341616,-1.01223755,-0.06108881,-23.53113174,-36.21747971,-72.25957489,0,0,0,1,0,0,0,0,0,0,0,0,0,0,1,2
2,0.6001,56,-0.15017772,-0.97042584,-0.17081806,-0.99223292,1.91949368,-0.30586073,-60.01169205,-8.88629055,-89.09675598,-0.09690525,1.08639491,7.41297579,0.99786258,0.00145672,-0.00940594,-0.06465036,0.00134213,0.0051237,-0.00325706,0,0,0,0,1,2
1,0.61,61,0.07689117,-0.99510628,0.08018789,0.46139476,0.11789704,-0.12782483,-47.06226349,1.54925454,-99.91230774,0.26464343,0.04042821,-0.21692045,0.99999553,-0.00231011,-0.00034843,0.0018938,-0.00634376,0.00310713,0.00124491,0,0,0,0,1,2
3,0.61,57,-0.00277643,-1.00177503,-0.04658053,-0.11020949,-0.83765113,-0.08854627,-23.79421234,24.52499199,-77.34580231,-0.25130469,-1.55010414,-1.20067966,0.99985099,0.00233445,0.01350304,0.01050639,0.00480331,0.00200113,0.00272773,0,0,0,0,1,2
4,0.61,61,0.06321301,-0.9213295,-0.37161195,0.56440741,-1.08261216,0.05481219,-23.50189972,-36.30517197,-71.96726227,0,0,0,1,0,0,0,0,0,0,0,0,0,0,1,2
2,0.6101,57,-0.14140773,-0.97146857,-0.17401972,-0.97354573,2.08982491,-0.21666738,-59.80707169,-8.79859638,-88.42443848,-0.11470605,1.21080112,7.40372419,0.99785668,0.00168105,-0.01047936,-0.06457163,-0.00694566,0.00239361,-0.00314842,0,0,0,0,1,2
1,0.62,62,0.0716034,-0.99755901,0.08185621,-0.06255458,0.45925525,-0.05941871,-47.3545723,1.11078632,-99.8830719,0.30018273,0.02059406,-0.21432784,0.99999487,-0.00261992,-0.00017482,0.00187083,-0.00097398,0.00440246,0.00343819,0,0,0,0,1,2
3,0.62,58,-0.00166957,-1.00149274,-0.04500979,-0.21723756,-0.33545572,-0.08156748,-23.85267448,24.43729782,-77.84273529,-0.25347632,-1.54944789,-1.20400262,0.99985069,0.00235373,0.01349705,0.01053563,0.00369437,0.00359585,0.00240875,0,0,0,0,1,2
4,0.62,62,0.05951945,-0.92196304,-0.3700377,0.43900606,-0.92798942,0.07777843,-23.35574341,-35.72055054,-71.55802155,0,0,0,1,0,0,0,0,0,0,0,0,0,0,1,2
2,0.6201,58,-0.13661513,-0.97295344,-0.1790325,-0.91988748,1.8806113,-0.13232327,-59.89476776,-9.29552746,-89.24291229,-0.12649338,1.21546447,7.42019701,0.99784678,0.00178783,-0.01051307,-0.06471618,-0.01042225,-0.00199616,-0.00160559,0,0,0,0,1,2
1,0.63,63,0.06634568,-0.99988061,0.0794643,-0.56546974,0.78392822,-0.51073438,-47.03303146,1.60771704,-99.70768738,0.29512158,0.02507542,-0.20574269,0.99999505,-0.00257581,-0.0002142,0.001796,0.00420667,0.00144548,0.00520953,0,0,0,0,1,2
3,0.63,59,-0.00258864,-1.00082028,-0.04561349,-0.13208307,0.34130788,-0.19274756,-23.18035698,24.61268616,-77.95966339,-0.243674,-1.59016109,-1.20317638,0.9998461,0.00227183,0.0138532,0.01052797,0.00443593,0.00294208,0.00174151,0,0,0,0,1,2
4,0.63,63,0.05624037,-0.92129314,-0.37454596,0.36722326,-0.82497251,0.0986508,-23.35574341,-35.72055054,-71.55802155,0,0,0,1,0,0,0,0,0,0,0,0,0,0,1,2
1,0.64,64,0.06561586,-1.0022068,0.07930668,-0.36854339,0.96032816,-0.90361035,-47.26688004,2.22157264,-99.50306702,0.2921629,0.03333583,-0.19523442,0.99999529,-0.00255009,-0.00028656,0.00170448,0.00521142,0.00118728,0.00746132,0,0,0,0,1,2
3,0.64,60,0.00328222,-0.9998796,-0.0515557,-0.08019594,1.08605838,-0.14661367,-23.53113174,24.4080677,-77.37503815,-0.24445339,-1.58817315,-1.19237947,0.99984729,0.00227714,0.013836,0.01043382,-0.00197691,-0.0031562,0.00124811,0,0,0,0,1,2
4,0.64,64,0.05475492,-0.92126173,-0.37686494,0.24198483,-0.66786391,-0.03538709,-23.41420555,-35.98363113,-72.34726715,0,0,0,1,0,0,0,0,0,0,0,0,0,0,1,2
1,0.65,65,0.06382159,-1.00628042,0.07384449,-0.24109788,0.90991074,-1.16590333,-46.97456741,1.34463608,-99.8830719,0.29045767,0.04425132,-0.18511477,0.99999541,-0.00253534,-0.00038207,0.0016164,0.00743144,-0.0045254,0.01099328,0,0,0,0,1,2
4,0.65,65,0.05554943,-0.92080081,-0.37929815,0.27472559,-0.32292914,-0.02979134,-23.32651329,-35.89593506,-72.34726715,0,0,0,1,0,0,0,0,0,0,0,0,0,0,1,2
1,0.66,66,0.07105322,-1.0077728,0.07185668,-0.4717575,0.76825464,-1.22125149,-47.32534409,1.52002335,-99.15229034,0.28634518,0.05582921,-0.17619787,0.99999565,-0.00249958,-0.00048336,0.00153883,0.00051659,-0.00655598,0.01283853,0,0,0,0,1,2
4,0.66,66,0.05943533,-0.92069179,-0.37819511,0.2363665,0.03880925,-0.00491224,-22.71265602,-35.51593018,-71.87957001,0,0,0,1,0,0,0,0,0,0,0,0,0,0,1,2
1,0.67,67,0.07822528,-1.00511873,0.0728072,-0.22237542,0.77097315,-0.99816507,-47.32534409,1.52002335,-99.15229034,0.22470754,0.15097332,-0.16725759,0.99999613,-0.00196286,-0.00131462,0.00146218,-0.00626445,-0.00510697,0.01076671,0,0,0,0,1,2
4,0.67,67,0.06325334,-0.91793919,-0.37888727,0.23483759,0.20875011,0.15526988,-22.71265602,-35.51593018,-71.87957001,0,0,0,1,0,0,0,0,0,0,0,0,0,0,1,2
1,0.68,68,0.07938119,-1.00321078,0.08123691,-0.08326619,0.91124892,-0.57890868,-47.00379944,1.66617942,-99.47383881,0.22456421,0.15604737,-0.1576941,0.99999624,-0.00196156,-0.00135907,0.0013788,-0.00626034,0.00423988,0.00955871,0,0,0,0,1,2
4,0.68,68,0.06177769,-0.91449791,-0.37683028,0.50044566,0.24136052,0.30720717,-23.50189972,-35.69131851,-71.96726227,0,0,0,1,0,0,0,0,0,0,0,0,0,0,1,2
1,0.69,69,0.06871567,-1.00297248,0.08473684,0.16390204,1.0180639,-0.19629741,-46.94533539,1.95849168,-99.73691559,0.22694859,0.15722543,-0.14753284,0.9999963,-0.00198226,-0.0013695,0.00129018,0.00442005,0.00771814,0.00883122,0,0,0,0,1,2
3,0.69,61,0.00339308,-1.00191605,-0.04441465,0.09795915,0.92978257,-0.06116479,-22.82958221,23.47266769,-77.69657898,-0.21003567,-1.55620539,-1.14158714,0.99985629,0.00196793,0.01356108,0.00998601,-0.00147469,0.0034688,0.00295232,0,0,0,0,1,2
4,0.69,69,0.0608533,-0.91413492,-0.37670437,0.76668239,0.18692897,0.50988996,-23.00496864,-36.50979233,-71.55802155,0,0,0,1,0,0,0,0,0,0,0,0,0,0,1,2
1,0.7,70,0.05671304,-1.00102413,0.08319207,0.03597965,1.1206336,0.03331801,-47.17918777,1.34463608,-100.1169205,0.22810711,0.15603389,-0.13643539,0.99999636,-0.00199223,-0.00135928,0.00119333,0.0162398,0.00628757,0.00594344,0,0,0,0,1,2
3,0.7,62,0.00234898,-0.99828207,-0.04483873,-0.09489378,0.49604616,-0.03379909,-23.26804924,24.90499878,-77.37503815,-0.21096745,-1.55562317,-1.13662958,0.99985683,0.00197542,0.013556,0.00994286,-0.00052168,0.00288971,-0.00068846,0,0,0,0,1,2
4,0.7,70,0.05937669,-0.91390693,-0.37566572,0.9645232,-0.17665252,0.62114865,-23.47266769,-35.8082428,-71.82110596,0,0,0,1,0,0,0,0,0,0,0,0,0,0,1,2
2,0.7001,59,-0.14825667,-0.96984708,-0.17784946,-1.15391576,2.4980495,-0.68180668,-59.16398621,-9.00321579,-89.33060455,-0.10780209,1.03148198,7.62643147,0.99774474,0.00153725,-0.00891876,-0.06650975,-0.00165307,-0.00172171,-0.00293339,0,0,0,0,1,2
1,0.71,71,0.05671304,-0.99926609,0.07897285,-0.14557692,1.29222929,0.09289226,-47.0914917,1.31540489,-99.29844666,0.2275891,0.15411882,-0.12354956,0.9999966,-0.00198753,-0.00134279,0.00108084,0.01607148,0.00220476,0.00388852,0,0,0,0,1,2
3,0.71,63,0.00064465,-0.99883199,-0.04465336,0.08134241,0.32355115,-0.08767693,-23.26804924,24.90499878,-77.37503815,-0.21016274,-1.55460393,-1.13346255,0.99985713,0.00196794,0.01354723,0.00991511,0.00121127,0.00310341,-0.00019725,0,0,0,0,1,2
4,0.71,71,0.05980986,-0.91470498,-0.37518784,1.53238535,-0.22873449,0.71269929,-23.23881912,-36.56825638,-71.70417786,0,0,0,1,0,0,0,0,0,0,0,0,0,0,1,2
2,0.7101,60,-0.14278036,-0.97384387,-0.17859909,-1.22764206,1.69043815,-0.77791595,-59.63168716,-9.32475853,-88.48290253,-0.1382882,1.14022124,7.61774921,0.99774027,0.00186504,-0.00984799,-0.06643707,-0.0071178,-0.00142911,0.0001668,0,0,0,0,1,2
1,0.72,72,0.066102,-0.99998933,0.07333798,-0.28666964,1.06457543,0.22398773,-47.0914917,1.31540489,-99.29844666,0.15316795,0.11305512,-0.1124456,0.99999821,-0.00133761,-0.00098528,0.00098259,0.00651267,-0.00312373,0.00485333,0,0,0,0,1,2
3,0.72,64,-0.00037111,-1.00394273,-0.04271138,0.25821474,0.08148433,-0.10782112,-23.44343758,24.81730461,-77.72580719,-0.2075775,-1.55349767,-1.13277519,0.99985743,0.00194521,0.01353782,0.0099088,0.00239221,0.0052308,0.00479064,0,0,0,0,1,2
4,0.72,72,0.06141841,-0.91910726,-0.37384135,1.74214327,0.14998814,0.78490871,-23.23881912,-36.56825638,-71.70417786,0,0,0,1,0,0,0,0,0,0,0,0,0,0,1,2
2,0.7201,61,-0.14234951,-0.97398055,-0.17775396,-0.99583113,1.2045387,-0.73370755,-58.7547493,-10.31861973,-88.77520752,-0.14970358,1.14959347,7.6264596,0.99773425,0.00197062,-0.00992283,-0.06651395,-0.00608564,-0.00014735,0.00010838,0,0,0,0,1,2
1,0.73,73,0.07767884,-1.00243962,0.07199372,-0.42241853,0.48959824,0.18660147,-47.12072372,1.72464192,-99.73691559,0.14927822,0.11082458,-0.10742275,0.99999821,-0.0013036,-0.0009659,0.0009387,-0.00542044,-0.00364193,0.00799692,0,0,0,0,1,2
3,0.73,65,0.00378952,-1.00359976,-0.04937578,0.3481583,-0.57679713,-0.09982735,-23.38497543,24.46652985,-78.1058197,-0.23445383,-1.49919486,-1.13617325,0.99986297,0.00217543,0.01306161,0.00994071,-0.00151969,-0.00136022,0.00485618,0,0,0,0,1,2
4,0.73,73,0.06332518,-0.92254645,-0.3760199,1.52526462,0.66760814,0.74667007,-23.50189972,-35.60362244,-71.47032928,0,0,0,1,0,0,0,0,0,0,0,0,0,0,1,2
2,0.7301,62,-0.1513838,-0.97337085,-0.17843851,-0.94166785,1.27149415,-0.66359228,-59.22245026,-9.4124527,-88.62905121,-0.16072062,1.15839708,7.63602781,0.99772775,0.00207248,-0.00999291,-0.06659827,0.00305983,-0.00073173,0.00115844,0,0,0,0,1,2
1,0.74,74,0.08326989,-1.00470424,0.07562583,-0.05744963,0.02484112,0.01107916,-47.03303146,1.28617358,-99.82460785,0.14873414,0.11069468,-0.1071417,0.99999827,-0.00129885,-0.00096478,0.00093624,-0.01083315,-0.00014361,0.01090328,0,0,0,0,1,2
3,0.74,66,0.00547744,-0.99999928,-0.05137853,0.18846232,-1.02654874,-0.22900057,-23.47266769,24.46652985,-77.75504303,-0.23259871,-1.49740207,-1.14658427,0.99986231,0.00216027,0.01304593,0.01003131,-0.00258361,-0.00317522,0.00138008,0,0,0,0,1,2
4,0.74,74,0.06233103,-0.92378044,-0.37927011,1.11578977,0.89441675,0.53276157,-23.91113663,-37.03595352,-71.85033417,0,0,0,1,0,0,0,0,0,0,0,0,0,0,1,2
2,0.7401,63,-0.14855774,-0.97263807,-0.17510282,-0.79634106,1.97390139,-0.51706177,-59.22245026,-9.4124527,-88.62905121,-0.17133054,1.16702843,7.65292549,0.99771696,0.00217136,-0.01006158,-0.06674638,0.00064545,0.00260661,-0.00060566,0,0,0,0,1,2
1,0.75,75,0.07837664,-1.00817406,0.07409853,-0.41562852,0.09028211,-0.12218723,-46.33148193,1.63694823,-99.8830719,0.14465785,0.1118447,-0.10585926,0.99999839,-0.00126328,-0.00097486,0.00092503,-0.00570838,-0.00188952,0.01390328,0,0,0,0,1,2
3,0.75,67,0.00085684,-1.00009096,-0.04973544,0.2072843,-1.11368775,-0.16067261,-23.15112495,24.23267937,-77.14118958,-0.23055874,-1.4963274,-1.15783989,0.99986148,0.00214366,0.01303652,0.01012927,0.00205948,-0.0015576,0.00126428,0,0,0,0,1,2
4,0.75,75,0.06431077,-0.92740041,-0.37724197,1.11800015,0.67689097,0.10995265,-22.82958221,-36.10055542,-71.96726227,0,0,0,1,0,0,0,0,0,0,0,0,0,0,1,2
2,0.7501,64,-0.1429556,-0.97071505,-0.17909531,-1.0820291,2.04360056,-0.42577329,-59.71937943,-9.32475853,-88.62905121,-0.1848976,1.17488766,7.6701684,0.99770594,0.00229558,-0.01012176,-0.06689776,-0.00453927,-0.00144692,-0.00271334,0,0,0,0,1,2
1,0.76,76,0.07175441,-0.99846417,0.07396221,-0.7555024,0.0341269,-0.05247864,-46.50687027,1.95849168,-99.79537964,0.13714328,0.11234026,-0.10495161,0.99999839,-0.0011977,-0.00097926,0.00091705,0.0002348,-0.00119019,0.00377051,0,0,0,0,1,2
3,0.76,68,0.00402973,-0.99955106,-0.04901617,0.27781203,-0.71552032,-0.10223691,-23.15112495,24.23267937,-77.14118958,-0.22779907,-1.49565744,-1.16513515,0.999861,0.00212035,0.01303079,0.0101926,-0.00111461,-0.00090322,0.00078511,0,0,0,0,1,2
4,0.76,76,0.06463549,-0.93040127,-0.37166914,1.05198872,0.09489653,-0.17845027,-23.76498032,-36.15901566,-72.2888031,0,0,0,1,0,0,0,0,0,0,0,0,0,0,1,2
2,0.7601,65,-0.14709887,-0.96916837,-0.17869203,-0.83266354,1.80260873,-0.55364364,-59.71937943,-8.65244102,-88.86290741,-0.21797992,1.1457746,7.69607687,0.99769264,0.00256886,-0.00984839,-0.06712595,-0.00020342,-0.00101548,-0.00358716,0,0,0,0,1,2
3,0.77,69,0.01477654,-0.9969852,-0.04522783,0.33313727,-0.43989596,0.11075643,-23.12189484,24.4080677,-77.28733826,-0.2244745,-1.49697363,-1.16956866,0.99986047,0.00209196,0.01304249,0.01023093,-0.01194206,0.00270754,-0.00163267,0,0,0,0,1,2
1,0.77,77,0.07312276,-0.99253553,0.06956595,0.23568368,-0.42337868,-0.16329092,-46.50687027,1.95849168,-99.79537964,0.09336603,0.12930506,-0.10680091,0.99999863,-0.00081582,-0.00112764,0.00093293,-0.00147323,-0.00490878,-0.00235141,0,0,0,0,1,2
4,0.77,77,0.06661751,-0.93087566,-0.36813551,0.52276862,-0.26842132,-0.17371932,-23.76498032,-36.15901566,-72.2888031,0,0,0,1,0,0,0,0,0,0,0,0,0,0,1,2
2,0.7701,66,-0.14862904,-0.97378117,-0.17645428,-0.97768366,1.20324922,-0.68148571,-58.37474442,-9.29552746,-88.599823,-0.22923945,1.15464592,7.70488358,0.99768639,0.00267284,-0.00991882,-0.06720369,0.00026822,0.00249071,0.00075008,0,0,0,0,1,2
3,0.78,70,0.02071444,-0.99835885,-0.04148743,0.24714699,-0.49327528,0.26600501,-23.26804924,24.11575508,-78.1058197,-0.12227629,-1.33354247,-1.17222762,0.9998793,0.00118597,0.01162556,0.01024115,-0.01715909,0.00602394,-0.00027189,0,0,0,0,1,2
1,0.78,78,0.07555167,-1.00134146,0.06863427,0.64696032,-0.47088316,0.03942475,-46.53609848,1.87079799,-99.94153595,0.09947661,0.12926184,-0.11196453,0.99999851,-0.0008692,-0.00112717,0.00097805,-0.00307407,-0.00597703,0.0065111,0,0,0,0,1,2
4,0.78,78,0.06955898,-0.92440903,-0.37317163,0.09762764,-0.37727404,0.11261611,-23.70651817,-35.63285446,-72.05495453,0,0,0,1,0,0,0,0,0,0,0,0,0,0,1,2
2,0.7801,67,-0.1517005,-0.97463238,-0.17997281,-0.85265368,1.06382787,-0.66699868,-59.48553085,-9.23706532,-89.03829193,-0.23904608,1.16311979,7.71257544,0.99768096,0.00276386,-0.00998667,-0.06727161,0.00319744,-0.00064854,0.00270945,0,0,0,0,1,2
3,0.79,71,0.00787706,-1.00023508,-0.03867681,0.18154532,-0.91152829,0.55498171,-23.53113174,24.23267937,-77.84273529,-0.12051219,-1.33950651,-1.18114305,0.99987793,0.00117202,0.01167766,0.01031882,-0.0021793,0.00757272,0.00104956,0,0,0,0,1,2
1,0.79,79,0.07871084,-1.00902593,0.07554317,-0.07594182,-0.02769564,0.23416795,-46.44840622,2.04618526,-99.47383881,0.09868693,0.12694812,-0.11236356,0.99999851,-0.00086229,-0.00110699,0.00098151,-0.00568484,0.00032019,0.01487772,0,0,0,0,1,2
4,0.79,79,0.0736716,-0.92219239,-0.37905565,0.57866627,-0.67178565,0.25395316,-23.61882401,-35.45746994,-72.2888031,0,0,0,1,0,0,0,0,0,0,0,0,0,0,1,2
2,0.7901,68,-0.15434729,-0.97467524,-0.18457168,-0.72691119,1.21706235,-0.63159347,-59.48553085,-9.23706532,-89.03829193,-0.24786122,1.17153037,7.72202921,0.99767441,0.00284637,-0.01005448,-0.06735479,0.00581031,-0.00501169,0.00400126,0,0,0,0,1,2
1,0.8,80,0.07436517,-1.01031148,0.07529228,-0.15350129,0.38833344,0.35382575,-46.94533539,1.92926037,-99.73691559,0.09741329,0.12313013,-0.10865512,0.99999863,-0.00085111,-0.00107371,0.00094911,-0.00132073,-0.00000037,0.01583511,0,0,0,0,1,2
3,0.8,72,0.00350725,-0.99882364,-0.04490118,0.20125844,-0.8434425,0.71255273,-23.29728127,24.61268616,-77.90119934,-0.11854556,-1.34702075,-1.18929839,0.9998765,0.00115637,0.01174332,0.01038983,0.00202608,0.00125871,-0.00020928,0,0,0,0,1,2
4,0.8,80,0.07219067,-0.92145592,-0.37953532,0.68649596,-0.86259162,0.33540082,-23.76498032,-36.01286316,-72.55188751,0,0,0,1,0,0,0,0,0,0,0,0,0,0,1,2
2,0.8001,69,-0.15120772,-0.97372174,-0.17965727,-0.81584215,1.30256808,-0.55971712,-59.04706192,-8.74013424,-88.80444336,-0.25767329,1.17938852,7.73228645,0.99766743,0.00293732,-0.01011687,-0.06744506,0.00316659,-0.00017009,0.0016954,0,0,0,0,1,2
3,0.81,73,0.00044135,-1.00005496,-0.04804044,0.00498597,-0.01211982,0.70662874,-23.53113174,23.79421234,-77.81350708,-0.11849128,-1.35407472,-1.18909121,0.99987578,0.00115652,0.01180488,0.01038808,0.0050071,-0.00183475,0.00107262,0,0,0,0,1,2
4,0.81,81,0.06974377,-0.91821486,-0.37193084,0.24162267,-0.673388,0.31351092,-23.64805603,-35.83747482,-71.76264191,0,0,0,1,0,0,0,0,0,0,0,0,0,0,1,2
1,0.81,81,0.07336301,-1.00601768,0.07143769,-0.58362037,0.41806391,0.35817996,-46.76995087,2.04618526,-99.53230286,0.09188145,0.11924715,-0.10435432,0.99999881,-0.00080276,-0.0010399,0.0009115,-0.00070441,-0.00346902,0.01121358,0,0,0,0,1,2
2,0.8101,70,-0.14009823,-0.97168618,-0.18075813,-0.81567377,1.18003249,-0.47377509,-59.86553574,-9.20783424,-88.7167511,-0.32424411,1.31792426,7.72347879,0.99765742,0.00359751,-0.01128409,-0.06737678,-0.0067818,-0.00119518,-0.00193772,0,0,0,0,1,2
3,0.82,74,0.00197115,-1.00271928,-0.04767856,0.02187595,0.00565131,0.65482217,-23.53113174,23.79421234,-77.81350708,-0.11827251,-1.36061406,-1.1887325,0.99987507,0.00115516,0.01186196,0.01038498,0.00343393,-0.00135893,0.00376449,0,0,0,0,1,2
1,0.82,82,0.0788945,-1.00093663,0.07017151,-0.73437333,-0.43520826,0.43177462,-46.76995087,2.04618526,-99.53230286,0.04945897,0.23457868,-0.09776792,0.99999756,-0.00043336,-0.00204671,0.00085407,-0.00613215,-0.00408044,0.00645373,0,0,0,0,1,2
4,0.82,82,0.06642587,-0.91851449,-0.36809483,-0.27377778,-0.51662314,0.15294693,-23.64805603,-35.83747482,-71.76264191,0,0,0,1,0,0,0,0,0,0,0,0,0,0,1,2
2,0.8201,71,-0.13272806,-0.97155893,-0.18393636,-0.90644974,0.40368247,-0.41203436,-59.60245514,-9.3539896,-89.09675598,-0.33370444,1.32269812,7.72512245,0.99765557,0.00368284,-0.01132003,-0.0673921,-0.01230383,-0.00344206,-0.00270142,0,0,0,0,1,2
3,0.83,75,-0.00241291,-1.0046643,-0.04754727,0.03853203,0.2484951,0.6237579,-23.26804924,24.29114342,-77.72580719,-0.12685007,-1.46211278,-1.18166625,0.9998647,0.00123839,0.01274689,0.01032507,0.00734886,-0.00111041,0.00558691,0,0,0,0,1,2
1,0.83,83,0.08870998,-1.00126994,0.07566978,-0.24250406,-1.14198494,0.52317399,-46.74071884,1.69541073,-99.73691559,0.04617502,0.23019974,-0.10934166,0.9999975,-0.00040487,-0.00200848,0.00095499,-0.01438601,0.0019248,0.00787233,0,0,0,0,1,2
4,0.83,83,0.06316461,-0.91763419,-0.36589026,-0.11355054,-0.58439857,0.0959196,-23.88190651,-35.83747482,-71.76264191,0,0,0,1,0,0,0,0,0,0,0,0,0,0,1,2
2,0.8301,72,-0.1360012,-0.97432679,-0.17735851,-0.69264954,-0.62090504,-0.16424885,-59.4270668,-9.29552746,-88.68751526,-0.33962157,1.32317448,7.71764421,0.99765974,0.0037339,-0.01132095,-0.06732759,-0.0093003,0.00365262,-0.00061105,0,0,0,0,1,2
3,0.84,76,-0.00534071,-1.00122631,-0.04718081,-0.01793395,0.50991172,0.41877398,-22.9465065,23.06343079,-78.22274017,-0.12700897,-1.46606231,-1.17637646,0.9998647,0.00123955,0.01278139,0.01027897,0.00884515,-0.00077912,0.00208563,0,0,0,0,1,2
1,0.84,84,0.09062499,-0.9978711,0.07408991,-0.02449284,-1.29564559,0.30829716,-46.85764313,1.2277112,-99.8830719,0.04494679,0.22807522,-0.12243848,0.99999738,-0.00039436,-0.00198991,0.00106926,-0.01659633,0.0006251,0.00450964,0,0,0,0,1,2
4,0.84,84,0.05982693,-0.91874111,-0.36962897,-0.22160736,-0.37773094,0.10201417,-23.67728615,-35.8082428,-72.02572632,0,0,0,1,0,0,0,0,0,0,0,0,0,0,1,2
2,0.8401,73,-0.14153206,-0.97275865,-0.17361496,-0.63907456,-0.70795828,-0.14837457,-59.4270668,-9.29552746,-88.68751526,-0.34489065,1.3233372,7.70943975,0.99766439,0.00377906,-0.01131954,-0.06725668,-0.00347337,0.00715517,-0.00185481,0,0,0,0,1,2
3,0.85,77,-0.00356355,-0.99901307,-0.04518929,-0.26604366,0.45803076,0.34726554,-23.41420555,22.85881233,-78.39812469,-0.12965028,-1.46930504,-1.17156112,0.99986482,0.00126234,0.01280951,0.01023728,0.0069396,0.00114732,-0.00015911,0,0,0,0,1,2
4,0.85,85,0.05685524,-0.91903836,-0.37463766,-0.24104691,-0.15251215,0.03674616,-23.56036186,-35.8082428,-71.87957001,0,0,0,1,0,0,0,0,0,0,0,0,0,0,1,2
1,0.85,85,0.07676739,-0.99984878,0.06741822,-0.02201038,-1.33005679,-0.05624998,-46.74071884,1.2277112,-99.73691559,0.04376627,0.22961277,-0.13561314,0.99999732,-0.0003843,-0.00200329,0.00118421,-0.0026638,-0.00615865,0.0050272,0,0,0,0,1,2
2,0.8501,74,-0.14995147,-0.97296906,-0.17279878,-0.58331764,-0.17822708,0.04951942,-59.36860657,-9.03244686,-88.57059479,-0.35043722,1.32251716,7.70681429,0.99766576,0.00382661,-0.01130923,-0.06723434,0.00480636,0.00808705,-0.00037749,0,0,0,0,1,2
3,0.86,78,0.00072098,-1.00091517,-0.0427763,-0.1432007,-0.0949986,0.20052895,-23.41420555,23.88190651,-77.81350708,-0.13108709,-1.47135782,-1.17238438,0.99986446,0.00127516,0.01282728,0.01024464,0.00266656,0.00366898,0.00175939,0,0,0,0,1,2
1,0.86,86,0.06953546,-1.00005639,0.0702611,0.17649534,-1.39713967,-0.18130754,-46.27301788,0.90616781,-99.53230286,0.04450209,0.23244642,-0.1495041,0.99999708,-0.000391,-0.00202797,0.00130545,0.0046247,-0.00332558,0.00493508,0,0,0,0,1,2
2,0.8601,75,-0.15512423,-0.97267646,-0.16986468,-0.47402751,0.64741898,0.09302527,-59.89476776,-9.090909,-88.68751526,-0.24737932,1.2206161,7.72249889,0.9976697,0.00287105,-0.01048211,-0.06735946,0.00958892,0.01055065,-0.00031547,0,0,0,0,1,2
3,0.87,79,0.00112725,-1.00225818,-0.04616452,-0.1784817,-0.45845225,0.14278126,-23.41420555,23.88190651,-77.81350708,-0.13289054,-1.47300065,-1.17683733,0.99986386,0.00129154,0.0128414,0.01028371,0.00227343,0.00037087,0.00326238,0,0,0,0,1,2
1,0.87,87,0.067226,-1.00270689,0.07639695,0.45602,-0.80298889,-0.2826941,-46.27301788,0.90616781,-99.53230286,0.0971372,0.15405576,-0.16237785,0.99999774,-0.00084958,-0.00134319,0.00141815,0.00684099,0.00233359,0.00785497,0,0,0,0,1,2
4,0.87,86,0.05882066,-0.91985095,-0.37739158,-0.02282342,-0.76557827,-0.43282399,-23.9988308,-35.51593018,-72.14264679,0,0,0,1,0,0,0,0,0,0,0,0,0,0,1,2
2,0.8701,76,-0.15203869,-0.97378677,-0.17474402,-0.52756113,0.99528003,-0.02464154,-59.36860657,-8.91552162,-89.03829193,-0.25403062,1.2226578,7.73121691,0.99766409,0.00293096,-0.01049575,-0.067436,0.00490908,0.00463561,0.00105793,0,0,0,0,1,2
3,0.88,80,-0.00020199,-1.00138032,-0.04422626,-0.31933194,-0.89153737,0.10086972,-23.50189972,23.96959877,-77.75504303,-0.137428,-1.51777971,-1.18378091,0.99985814,0.00133594,0.01323163,0.01034522,0.00335797,0.00232124,0.00226766,0,0,0,0,1,2
1,0.88,88,0.06990071,-1.00334454,0.08504031,0.44692034,-0.07325939,-0.30771884,-47.00379944,0.90616781,-99.09383392,0.10156807,0.15718037,-0.16319045,0.99999774,-0.0008883,-0.00137039,0.00142532,0.00324675,0.01019565,0.00929965,0,0,0,0,1,2
4,0.88,87,0.06652555,-0.92106259,-0.37746137,-0.13039804,-0.60953367,-0.49746239,-23.61882401,-35.77901077,-71.99649048,0,0,0,1,0,0,0,0,0,0,0,0,0,0,1,2
2,0.8801,77,-0.15382718,-0.97433996,-0.17820203,-0.51046783,0.70283526,-0.06322689,-59.51476288,-9.58784008,-88.89213562,-0.26009044,1.2245481,7.7370615,0.99766028,0.00298537,-0.01050849,-0.06748746,0.00651301,0.00143426,0.00249939,0,0,0,0,1,2
3,0.89,81,-0.00236523,-1.00077641,-0.04869982,-0.10737324,-0.90846562,0.10163921,-23.38497543,24.37883568,-77.9888916,-0.13852736,-1.51921368,-1.19274437,0.99985707,0.00134669,0.01324394,0.01042357,0.00491394,-0.00211901,0.00181466,0,0,0,0,1,2
1,0.89,89,0.07196707,-1.00466144,0.0886389,0.06695494,0.16543487,-0.14038551,-46.41917419,1.31540489,-100.0876923,0.10236113,0.15845856,-0.16148496,0.99999768,-0.00089522,-0.00138155,0.00141045,0.00132895,0.01364405,0.01101497,0,0,0,0,1,2
4,0.89,88,0.0708399,-0.91893381,-0.3770633,0.11394052,-0.12837847,-0.35432696,-23.9988308,-35.36977386,-71.96726227,0,0,0,1,0,0,0,0,0,0,0,0,0,0,1,2
3,0.9,82,-0.00665916,-1.00114572,-0.05304735,0.12033733,-0.71664554,0.00129347,-23.41420555,24.6711483,-78.04735565,-0.13734247,-1.5195601,-1.19994962,0.99985641,0.00133722,0.01324698,0.0104863,0.00921146,-0.00645146,0.00225091,0,0,0,0,1,2
1,0.9,90,0.06822873,-1.00500071,0.08152276,-0.0187294,-0.14836283,-0.11666404,-46.65302658,0.81847411,-99.44460297,0.10205447,0.15973082,-0.16285881,0.99999762,-0.00089257,-0.00139265,0.00142245,0.00506995,0.00652353,0.01057623,0,0,0,0,1,2
4,0.9,89,0.07257029,-0.919321,-0.3754198,0.52054691,0.00690895,-0.13374463,-23.38497543,-35.89593506,-72.46418762,0,0,0,1,0,0,0,0,0,0,0,0,0,0,1,2
3,0.91,83,-0.00920056,-1.00372171,-0.0508621,-0.00518157,-0.28322643,-0.062381,-23.44343758,24.17421722,-77.9888916,-0.13739242,-1.5190661,-1.20280159,0.99985623,0.00133794,0.01324264,0.01051119,0.01182516,-0.00416462,0.00465313,0,0,0,0,1,2
1,0.91,91,0.06336661,-1.00263619,0.07392424,-0.53348982,-0.5889501,0.07863823,-46.74071884,1.40309846,-99.23999023,0.09631772,0.15938422,-0.16840214,0.99999768,-0.00084257,-0.00138965,0.00147075,0.00972293,-0.0008225,0.00733376,0,0,0,0,1,2
4,0.91,90,0.07047694,-0.91927356,-0.37456709,0.59076452,0.07328055,0.04045485,-23.38497543,-35.89593506,-72.46418762,0,0,0,1,0,0,0,0,0,0,0,0,0,0,1,2
3,0.92,84,-0.00638964,-1.00162268,-0.04923563,0.0615794,0.39391845,-0.22579738,-23.64805603,24.20344925,-77.8719635,-0.13676597,-1.51662874,-1.19899023,0.99985683,0.00133181,0.01322147,0.01047784,0.00897924,-0.00263882,0.00256609,0,0,0,0,1,2
4,0.92,91,0.06856646,-0.91842586,-0.37431374,0.44962144,-0.03160616,0.11136896,-23.53113174,-36.12978745,-71.76264191,0,0,0,1,0,0,0,0,0,0,0,0,0,0,1,2
1,0.92,92,0.06826007,-0.9970625,0.07248013,-0.39309084,-0.46587202,0.30697176,-46.8284111,1.11078632,-99.53230286,0.07823893,0.14080067,-0.17393993,0.99999791,-0.00068463,-0.00122768,0.00151875,0.00434978,-0.00169071,0.00202456,0,0,0,0,1,2
3,0.93,85,-0.00473986,-1.00054359,-0.04833215,0.23498732,0.86323631,-0.3744168,-23.64805603,24.20344925,-77.8719635,-0.14110045,-1.58315158,-1.18779385,0.99984992,0.00137435,0.01380164,0.01038128,0.00705197,-0.00178138,0.00150332,0,0,0,0,1,2
1,0.93,93,0.06971787,-1.00132203,0.07436688,0.39019141,-0.17884526,0.46725753,-46.8284111,1.11078632,-99.53230286,0.08197467,0.13627344,-0.17633682,0.99999791,-0.00071719,-0.00118811,0.00153968,0.00291867,0.00003716,0.00649986,0,0,0,0,1,2
4,0.93,92,0.06530031,-0.92007029,-0.37446043,0.39712358,-0.13684157,0.21527195,-23.06343079,-35.89593506,-71.99649048,0,0,0,1,0,0,0,0,0,0,0,0,0,0,1,2
3,0.94,86,-0.00016487,-0.99789178,-0.04707268,0.00374137,1.07138479,-0.45934755,-23.29728127,24.6711483,-78.16427612,-0.14106047,-1.57806361,-1.17730021,0.99985158,0.00137228,0.01375738,0.01028967,0.00156181,-0.00057026,-0.00104469,0,0,0,0,1,2
1,0.94,94,0.06616185,-1.00521445,0.07608361,0.31613544,0.11588961,0.23646775,-47.00379944,0.96463019,-99.59075928,0.08521476,0.13383251,-0.17557921,0.99999797,-0.00074543,-0.00116677,0.00153308,0.00668786,0.00140052,0.01024899,0,0,0,0,1,2
4,0.94,93,0.06210156,-0.92059112,-0.37221324,0.41429535,-0.06810636,0.23360789,-23.85267448,-35.57439423,-71.44110107,0,0,0,1,0,0,0,0,0,0,0,0,0,0,1,2
3,0.95,87,0.00150052,-0.99769044,-0.04399035,0.10949466,1.05439675,-0.47647557,-23.12189484,24.37883568,-77.52119446,-0.13994297,-1.57281864,-1.16702354,0.99985313,0.00136083,0.01371184,0.01019982,-0.00002243,0.00248314,-0.00133601,0,0,0,0,1,2
1,0.95,95,0.06142096,-1.00540721,0.07108686,0.33325642,0.29007187,-0.01673951,-47.06226349,0.64308679,-98.97690582,0.0887469,0.1337844,-0.17291391,0.99999797,-0.00077622,-0.00116632,0.00150986,0.01138673,-0.00364458,0.00974794,0,0,0,0,1,2
4,0.95,94,0.05895321,-0.91983873,-0.37391424,0.3952294,0.10483203,0.20227633,-23.47266769,-35.8082428,-71.4995575,0,0,0,1,0,0,0,0,0,0,0,0,0,0,1,2
3,0.96,88,-0.00021397,-1.00135469,-0.04604145,0.14465725,0.89882392,-0.51339668,-23.15112495,23.26804924,-78.13504791,-0.13848224,-1.56726861,-1.15832579,0.99985456,0.00134655,0.01366365,0.0101237,0.00189345,0.00058085,0.00236124,0,0,0,0,1,2
1,0.96,96,0.0616342,-1.00435984,0.07431608,0.94733196,-0.06755075,-0.15561977,-46.53609848,1.05232382,-99.15229034,0.0981541,0.135387,-0.17412928,0.99999785,-0.00085835,-0.00118017,0.00152057,0.01114127,-0.00047751,0.008955,0,0,0,0,1,2
4,0.96,95,0.05759162,-0.91938525,-0.37592259,0.3777383,0.08920587,0.09766931,-23.47266769,-35.8082428,-71.4995575,0,0,0,1,0,0,0,0,0,0,0,0,0,0,1,2
2,0.9601,78,-0.15158641,-0.96910596,-0.17273246,-0.90709293,-0.09806971,-0.33055204,-59.10552216,-9.52937698,-88.7167511,-0.14928086,1.0546422,7.79209185,0.99764508,0.00192499,-0.00909357,-0.06795544,0.00323436,0.00500629,-0.00395496,0,0,0,0,1,2
3,0.97,89,-0.0005086,-1.00143707,-0.04452813,0.00386487,0.89828396,-0.4793148,-23.2095871,23.94036865,-78.39812469,-0.13842271,-1.56205678,-1.14958489,0.999856,0.00134454,0.01361828,0.01004738,0.00228431,0.00207457,0.0023655,0,0,0,0,1,2
1,0.97,97,0.06698263,-1.00313294,0.07444961,0.43308589,-0.52546358,-0.01285262,-46.59456253,1.52002335,-99.15229034,0.10762182,0.11068816,-0.18123789,0.99999779,-0.0009407,-0.00096445,0.0015825,0.00562823,-0.00040519,0.00811719,0,0,0,0,1,2
4,0.97,96,0.06085312,-0.92038816,-0.37806776,0.27287588,-0.06125089,-0.21691808,-23.15112495,-35.5451622,-72.20111084,0,0,0,1,0,0,0,0,0,0,0,0,0,0,1,2
2,0.9701,79,-0.15725522,-0.97070301,-0.17012915,-0.63841307,0.12430044,-0.36578307,-59.54399109,-8.27243519,-88.599823,-0.15567622,1.05845904,7.79157925,0.99764502,0.00198289,-0.00912301,-0.06795152,0.00782471,0.00691599,-0.00192517,0,0,0,0,1,2
3,0.98,90,0.00478056,-0.99959171,-0.04605283,0.11087727,0.86328161,-0.40978342,-23.2095871,23.94036865,-78.39812469,-0.15412326,-1.5028677,-1.14138556,0.99986339,0.00147542,0.01310056,0.00997707,-0.00273536,0.00054004,0.00073498,0,0,0,0,1,2
1,0.98,98,0.07606991,-0.99782628,0.07799316,0.16412351,-0.51125729,0.02430571,-46.59456253,1.52002335,-99.15229034,0.1088974,0.11082748,-0.18645819,0.99999779,-0.00095188,-0.0009656,0.00162807,-0.00411261,0.00342606,0.00372763,0,0,0,0,1,2
4,0.98,97,0.06319016,-0.92029917,-0.37995544,0.36224845,-0.12780829,-0.35964924,-22.71265602,-35.22361755,-72.05495453,0,0,0,1,0,0,0,0,0,0,0,0,0,0,1,2
2,0.9801,80,-0.15799634,-0.97147626,-0.17141174,-0.6374262,0.74633735,-0.42837423,-59.54399109,-8.27243519,-88.599823,-0.16295619,1.06401336,7.79699135,0.99764115,0.00205,-0.00916696,-0.06799925,0.00847135,0.00591362,-0.00082482,0,0,0,0,1,2
3,0.99,91,0.01092893,-1.00023043,-0.04721442,0.02339657,0.70692557,-0.37776995,-23.38497543,24.49576187,-78.19351196,-0.15387304,-1.49876153,-1.13451159,0.99986446,0.0014721,0.01306484,0.00991702,-0.00806967,-0.00038708,0.00158165,0,0,0,0,1,2
1,0.99,99,0.07625163,-1.00138795,0.08021723,0.2480787,-0.09328321,0.07361672,-46.65302658,1.14001751,-99.73691559,0.11129464,0.11016231,-0.18761595,0.99999779,-0.0009728,-0.00095976,0.00163819,-0.00404261,0.00534003,0.00744517,0,0,0,0,1,2
4,0.99,98,0.06633807,-0.92050284,-0.37830821,0.57643163,-0.30002248,-0.34994438,-23.23881912,-35.77901077,-71.96726227,0,0,0,1,0,0,0,0,0,0,0,0,0,0,1,2
2,0.9901,81,-0.15167628,-0.97291249,-0.17612626,-0.52948958,0.89936078,-0.37530193,-59.10552216,-8.74013424,-89.30137634,-0.1694071,1.06931806,7.80416155,0.99763632,0.00210988,-0.00920918,-0.06806223,0.00195874,0.00163585,0.00033039,0,0,0,0,1,2
3,1,92,0.01105768,-1.00084782,-0.04630663,-0.04584835,0.39454916,-0.33061263,-23.23881912,24.46652985,-78.01811981,-0.15432107,-1.49526918,-1.13070834,0.99986517,0.00147527,0.01303438,0.00988385,-0.00811556,0.00054947,0.00216034,0,0,0,0,1,2
1,1,100,0.07017318,-1.00432789,0.0763576,-0.07653773,0.09407767,0.06566177,-46.56533051,1.1692487,-99.59075928,0.11058602,0.10943501,-0.18667647,0.99999779,-0.0009666,-0.00095343,0.00162998,0.00219169,0.00126929,0.00966658,0,0,0,0,1,2
4,1,99,0.0648021,-0.91803998,-0.37595916,0.78990549,-0.40575179,-0.18196411,-23.23881912,-35.77901077,-71.96726227,0,0,0,1,0,0,0,0,0,0,0,0,0,0,1,2
2,1.0001,82,-0.1502049,-0.9720751,-0.17533043,-0.52939266,0.86413622,-0.34076294,-59.31014252,-9.50014591,-88.57059479,-0.17581375,1.07422757,7.81105232,0.99763173,0.00216913,-0.00924799,-0.06812277,0.0007599,0.00238687,-0.00086608,0,0,0,0,1,2
3,1.01,93,0.00832712,-0.99991286,-0.04430507,-0.13226706,0.42792737,-0.19145577,-23.18035698,23.96959877,-77.75504303,-0.15563929,-1.49316466,-1.12647903,0.99986577,0.00148611,0.01301596,0.00984708,-0.00536769,0.00252783,0.00105796,0,0,0,0,1,2
4,1.01,100,0.06042695,-0.91895878,-0.37579232,0.91345054,-0.35677689,0.00822186,-23.35574341,-35.25284958,-72.46418762,0,0,0,1,0,0,0,0,0,0,0,0,0,0,1,2
2,1.0101,83,-0.15331247,-0.97300005,-0.17363563,-0.52853256,1.22574043,-0.31903377,-59.6901474,-8.97398376,-89.15522003,-0.12492798,1.03214955,7.8230691,0.99762893,0.00170205,-0.00891173,-0.0682231,0.00360142,0.00408768,0.00025571,0,0,0,0,1,2
3,1.02,94,0.00814549,-1.00100124,-0.04436442,-0.21825732,0.37454808,-0.03620724,-22.91727448,24.55422401,-77.22888184,-0.15780298,-1.49262631,-1.12268746,0.99986613,0.00150452,0.01301112,0.00981423,-0.00513826,0.00254602,0.00214181,0,0,0,0,1,2
4,1.02,101,0.05666887,-0.91842359,-0.37505674,0.80457574,-0.08528165,0.27726132,-23.56036186,-35.39900589,-71.82110596,0,0,0,1,0,0,0,0,0,0,0,0,0,0,1,2
2,1.0201,84,-0.1573341,-0.97707546,-0.16950068,-0.65380472,1.45322323,-0.41986823,-59.45629883,-9.61707115,-89.47676086,-0.13343845,1.03888011,7.83532238,0.99762088,0.0017811,-0.00896507,-0.06833047,0.00650281,0.00825654,0.00415363,0,0,0,0,1,2
3,1.03,95,0.00423889,-1.00014997,-0.04514373,-0.23515788,0.13184237,-0.02252656,-23.15112495,23.9988308,-77.8719635,-0.16287409,-1.49777102,-1.12116671,0.99986559,0.00154903,0.0130556,0.0098016,-0.0012737,0.00178513,0.00121334,0,0,0,0,1,2
2,1.0301,85,-0.15687481,-0.97414547,-0.16484864,-0.61703944,1.83136129,-0.38085368,-59.45629883,-9.61707115,-89.47676086,-0.14215782,1.04590547,7.85137606,0.99761063,0.00186246,-0.00902077,-0.06847095,0.00679322,0.01246434,0.00042514,0,0,0,0,1,2
3,1.04,96,-0.00090102,-1.00107896,-0.04852104,-0.19934607,-0.21443161,-0.04490616,-23.15112495,23.9988308,-77.8719635,-0.16486731,-1.49741423,-1.1232655,0.99986541,0.00156663,0.01305229,0.00982013,0.0038289,-0.00147136,0.0021428,0,0,0,0,1,2
1,1.04,101,0.0589608,-1.00126374,0.07410477,-0.80545253,1.38937461,-0.59046751,-46.24378967,1.40309846,-99.94153595,0.13287182,-0.08832071,-0.15986079,0.99999809,-0.00115845,0.00077236,0.00139415,0.00966604,-0.00118461,0.00567261,0,0,0,0,1,2
2,1.0401,86,-0.15985189,-0.96792889,-0.16625643,-0.50923234,2.24594235,-0.46451837,-59.45629883,-9.64630222,-88.80444336,-0.15038343,1.054497,7.87147903,0.99759781,0.0019408,-0.00909031,-0.06864667,0.01085471,0.01013712,-0.00485762,0,0,0,0,1,2
3,1.05,97,-0.00486742,-1.00155687,-0.04942027,-0.14651276,-0.14503711,-0.04361574,-23.03420067,24.43729782,-78.19351196,-0.16632976,-1.49703443,-1.12468839,0.99986529,0.00157952,0.01304883,0.00983271,0.00781417,-0.00231938,0.00254463,0,0,0,0,1,2
1,1.05,102,0.07458173,-0.99491292,0.07954313,-0.36166406,1.56807816,-0.31049705,-46.50687027,0.17538731,-100,0.1303234,-0.08640275,-0.14377664,0.99999833,-0.00113634,0.00075543,0.00125383,-0.00627157,0.00478836,0.00083766,0,0,0,0,1,2
2,1.0501,87,-0.15701191,-0.97094899,-0.17013389,-0.47187674,2.89987421,-0.42226049,-58.93013763,-9.73399544,-88.45366669,-0.15921243,1.0638541,7.89806366,0.99758095,0.00202539,-0.00916601,-0.06887887,0.00759948,0.00699824,-0.00172539,0,0,0,0,1,2
3,1.06,98,-0.00639434,-1.00167286,-0.04996166,-0.07753599,0.06367204,-0.12709035,-22.18649483,23.06343079,-78.07658386,-0.1671,-1.49573243,-1.1240958,0.99986553,0.00158606,0.01303741,0.00982761,0.00935839,-0.00284186,0.00263964,0,0,0,0,1,2
1,1.06,103,0.08840729,-0.99875361,0.08252484,0.51134133,1.73431313,0.08684816,-46.33148193,1.75387311,-100,0.13660987,-0.08856834,-0.12694752,0.99999839,-0.00119129,0.00077422,0.0011069,-0.01979897,0.00743082,0.00583982,0,0,0,0,1,2
3,1.07,99,-0.00133355,-1.00082576,-0.04936744,-0.00990502,0.44617257,-0.2775155,-22.91727448,23.03420067,-77.43349457,-0.16717382,-1.49275005,-1.11975443,0.99986625,0.00158596,0.01301144,0.00978971,0.00432128,-0.00227962,0.00191312,0,0,0,0,1,2
1,1.07,104,0.08631006,-1.00172532,0.08420084,0.51590985,1.38686156,0.05675411,-46.12686157,1.11078632,-99.50306702,0.21295907,0.05959814,-0.12471039,0.99999762,-0.00185898,-0.00051807,0.00108927,-0.01687112,0.00845528,0.0087726,0,0,0,0,1,2
3,1.08,100,0.00202752,-1.00041771,-0.04786187,-0.17001887,0.3081131,-0.38465461,-22.97573853,24.70038033,-78.25197601,-0.16112819,-1.4895134,-1.11704671,0.99986696,0.00153263,0.01298375,0.00976536,0.00100487,-0.00080795,0.00153536,0,0,0,0,1,2
1,1.08,105,0.07005177,-1.00515401,0.07983155,0.12463003,1.17376697,0.06919368,-46.12686157,1.11078632,-99.50306702,0.21502942,0.05801269,-0.11317435,0.99999768,-0.00187698,-0.0005044,0.00098858,0.00149483,0.00286851,0.01073538,0,0,0,0,1,2
4,1.08,102,0.06326171,-0.91774011,-0.3757126,-0.1320975,1.70307612,0.50453031,-23.94036865,-36.04209137,-72.25957489,0,0,0,1,0,0,0,0,0,0,0,0,0,0,1,2
3,1.09,101,0.00406001,-0.99877167,-0.04423676,-0.18721123,-0.14206515,-0.42622492,-22.97573853,24.70038033,-78.25197601,-0.16302024,-1.48533249,-1.11861241,0.9998672,0.00154896,0.01294709,0.00977918,-0.00101577,0.00267506,-0.00021111,0,0,0,0,1,2
1,1.09,106,0.06008409,-1.00633633,0.07515993,0.00545038,0.75547057,-0.08365187,-46.88687515,1.46156096,-99.82460785,0.21562462,0.05826987,-0.10559888,0.99999768,-0.00188215,-0.00050677,0.00092248,0.01149132,-0.00189021,0.01087795,0,0,0,0,1,2
4,1.09,103,0.06424604,-0.91827625,-0.37651178,-0.05770131,1.27272475,0.46017477,-23.23881912,-35.8082428,-71.55802155,0,0,0,1,0,0,0,0,0,0,0,0,0,0,1,2
3,1.1,102,0.00289088,-0.99868917,-0.04592865,-0.01025477,-0.19384521,-0.40875998,-23.47266769,24.58345413,-77.57965088,-0.16313019,-1.48134458,-1.12073374,0.9998675,0.00154982,0.01291225,0.00979766,0.00022284,0.00098784,-0.00025464,0,0,0,0,1,2
1,1.1,107,0.06090434,-1.00546312,0.07075017,-0.0412153,0.32074878,-0.35873884,-46.50687027,1.63694823,-99.26921844,0.21545887,0.06160166,-0.1021093,0.99999774,-0.00188071,-0.0005359,0.00089208,0.01062382,-0.00623355,0.00974675,0,0,0,0,1,2
4,1.1,104,0.06639613,-0.91769093,-0.37906411,0.08774029,0.82474113,0.44887051,-23.23881912,-35.8082428,-71.55802155,0,0,0,1,0,0,0,0,0,0,0,0,0,0,1,2
3,1.11,103,0.00234145,-1.00128126,-0.04665174,0.09694161,-0.31546703,-0.34052056,-22.91727448,24.14498711,-77.9888916,-0.16217339,-1.47808707,-1.12409067,0.99986762,0.00154157,0.01288387,0.00982681,0.00090959,0.00037146,0.00234816,0,0,0,0,1,2
1,1.11,108,0.07233176,-0.99727815,0.07095022,-0.53521025,-0.20620891,-0.47813591,-46.47763824,1.49079216,-99.23999023,0.20999135,0.06652532,-0.10341973,0.99999779,-0.00183304,-0.00057889,0.00090357,-0.00126482,-0.00537714,0.00241513,0,0,0,0,1,2
4,1.11,105,0.06769545,-0.92069137,-0.37782142,0.07008628,0.80662918,0.50126755,-23.61882401,-35.86670685,-72.02572632,0,0,0,1,0,0,0,0,0,0,0,0,0,0,1,2
3,1.12,104,0.0069593,-1.00257087,-0.0490199,-0.08045641,-0.05580014,-0.35488507,-23.58959389,24.29114342,-77.40426636,-0.16298483,-1.47457361,-1.12477136,0.99986786,0.00154842,0.01285313,0.0098328,-0.00360738,-0.00193649,0.00387282,0,0,0,0,1,2
1,1.12,109,0.08612855,-0.99532574,0.07731812,-0.23151568,-0.27240464,-0.20609744,-46.68225479,1.90002918,-99.76615143,0.23382784,0.25057459,-0.11469491,0.99999511,-0.00204271,-0.00218463,0.00100536,-0.01427654,0.00107687,0.00189919,0,0,0,0,1,2
4,1.12,106,0.06738461,-0.92183131,-0.37905672,0.17699602,0.73707426,0.55005002,-22.91727448,-37.82519531,-72.2888031,0,0,0,1,0,0,0,0,0,0,0,0,0,0,1,2
3,1.13,105,0.00914065,-1.00272155,-0.05096041,-0.2916581,0.06451917,-0.28457007,-23.61882401,24.64191818,-77.57965088,-0.21522629,-1.4020052,-1.12356806,0.99987519,0.00199793,0.01221547,0.00982705,-0.00542131,-0.00361381,0.00416364,0,0,0,0,1,2
1,1.13,110,0.08588441,-1.00216031,0.08276787,0.19512969,-0.19824627,0.17395315,-46.68225479,1.90002918,-99.76615143,0.23562621,0.24899366,-0.11693711,0.99999505,-0.00205844,-0.00217077,0.00102493,-0.01115583,0.00565854,0.00908492,0,0,0,0,1,2
4,1.13,107,0.06620805,-0.92004246,-0.38074225,0.2478227,0.75475603,0.53140235,-23.94036865,-37.44519043,-71.99649048,0,0,0,1,0,0,0,0,0,0,0,0,0,0,1,2
3,1.14,106,0.00814875,-1.0009985,-0.0531379,-0.25523639,-0.10906817,-0.23483178,-23.47266769,24.05729294,-78.31043243,-0.21778621,-1.39971566,-1.12469888,0.99987531,0.00202019,0.01219525,0.00983715,-0.00351963,-0.0051718,0.00248854,0,0,0,0,1,2
1,1.14,111,0.07266537,-1.005373,0.0837514,0.53457075,-0.22921343,0.37782103,-46.68225479,1.66617942,-100.0584641,0.24076134,0.24540208,-0.11987819,0.99999499,-0.00210327,-0.00213933,0.00105063,0.00220827,0.00634084,0.01143011,0,0,0,0,1,2
4,1.14,108,0.06145652,-0.91959131,-0.38275376,0.26604116,0.70417356,0.46028915,-23.94036865,-37.44519043,-71.99649048,0,0,0,1,0,0,0,0,0,0,0,0,0,0,1,2
3,1.15,107,0.00956115,-0.99993372,-0.05126582,-0.32402924,-0.40439683,-0.15264903,-23.47266769,24.05729294,-78.31043243,-0.22105321,-1.39838493,-1.12871885,0.99987507,0.00204901,0.01218329,0.00987256,-0.00493488,-0.00328915,0.00138305,0,0,0,0,1,2
1,1.15,112,0.0579578,-1.00342715,0.07691903,0.62802094,-0.48867312,0.26379302,-46.74071884,1.46156096,-99.70768738,0.24664691,0.24315014,-0.12537903,0.99999487,-0.00215471,-0.00211952,0.0010987,0.01665812,-0.00043726,0.00797304,0,0,0,0,1,2
4,1.15,109,0.05992427,-0.91896963,-0.37939194,0.1783883,0.5843761,0.39018577,-22.97573853,-36.24671173,-71.58725739,0,0,0,1,0,0,0,0,0,0,0,0,0,0,1,2
2,1.1501,88,-0.13643478,-0.97368777,-0.17910525,-0.94005549,1.42100072,-0.39968476,-58.81321335,-9.58784008,-88.74597931,-0.22458529,1.09120464,8.00680447,0.99751145,0.00261982,-0.00936233,-0.06983101,-0.0129059,-0.00021945,-0.00094961,0,0,0,0,1,2
3,1.16,108,0.00520755,-1.00230575,-0.04659628,-0.16439116,-0.38719043,-0.09946919,-23.58959389,24.29114342,-77.81350708,-0.22271824,-1.397578,-1.13256991,0.99987477,0.00206388,0.01217604,0.00990632,-0.0005042,0.00151485,0.00341958,0,0,0,0,1,2
1,1.16,113,0.056925,-1.00081241,0.07449566,0.27169022,-0.59702981,0.19332276,-46.97456741,1.43232965,-99.53230286,0.24889523,0.24168083,-0.13165268,0.99999487,-0.00217444,-0.00210656,0.00115346,0.01746539,-0.00272325,0.00512411,0,0,0,0,1,2
4,1.16,110,0.05851603,-0.91695517,-0.37546268,0.21603653,0.32775086,0.26254413,-23.61882401,-35.5451622,-71.44110107,0,0,0,1,0,0,0,0,0,0,0,0,0,0,1,2
2,1.1601,89,-0.13972037,-0.97431779,-0.17655635,-0.90474302,1.03995514,-0.33464521,-59.19321823,-9.44168377,-88.80444336,-0.2039146,1.15202665,7.99845886,0.99751174,0.0024762,-0.00990456,-0.06975725,-0.00935518,0.00245351,-0.00022352,0,0,0,0,1,2
3,1.17,109,0.00142588,-1.00218427,-0.04707278,-0.18184622,-0.02397381,-0.0245949,-23.23881912,24.72961044,-77.90119934,-0.22453856,-1.39734483,-1.13275647,0.99987471,0.00207976,0.01217384,0.00990814,0.00328018,0.00106302,0.00320968,0,0,0,0,1,2
1,1.17,114,0.06351873,-1.00254178,0.0755633,0.44985664,-0.31651852,-0.28207877,-46.56533051,0.23384975,-99.41537476,0.22984043,0.17058945,-0.13280347,0.99999624,-0.00200746,-0.00148634,0.00116191,0.01071496,-0.00174185,0.00738098,0,0,0,0,1,2
4,1.17,111,0.0608591,-0.91307235,-0.37431133,0.39295337,0.37933379,0.29458568,-23.7357502,-35.66208649,-71.96726227,0,0,0,1,0,0,0,0,0,0,0,0,0,0,1,2
2,1.1701,90,-0.14971745,-0.97318751,-0.17474329,-0.77944547,0.86455888,-0.25067484,-59.63168716,-9.4124527,-88.92136383,-0.21281762,1.15605021,8.00508785,0.99750721,0.00255673,-0.00993402,-0.06981576,0.00154625,0.00379486,0.00005894,0,0,0,0,1,2
3,1.18,110,0.00558409,-0.9999764,-0.04442049,-0.303743,-0.14630046,0.07729819,-23.09266281,24.4080677,-77.8719635,-0.18302907,-1.3601501,-1.13188934,0.99987936,0.00171428,0.0118529,0.00989568,-0.00078237,0.0034659,0.0010041,0,0,0,0,1,2
1,1.18,115,0.07263497,-1.00060344,0.07190498,-0.3597796,0.1434924,-0.62230754,-46.76995087,0.3215434,-99.91230774,0.22638875,0.17668311,-0.13064931,0.99999624,-0.00197737,-0.00153959,0.00114317,0.00058101,-0.00493989,0.00581888,0,0,0,0,1,2
4,1.18,112,0.06405401,-0.91271365,-0.37802467,0.51623344,0.48224622,0.34616607,-23.70651817,-35.34054184,-72.31803131,0,0,0,1,0,0,0,0,0,0,0,0,0,0,1,2
2,1.1801,91,-0.1582469,-0.97225904,-0.17221123,-0.61697233,1.50047922,-0.22745541,-59.63168716,-9.4124527,-88.92136383,-0.22104391,1.16099334,8.01819706,0.99749863,0.00263249,-0.00997174,-0.06993064,0.01026478,0.00627283,0.00015242,0,0,0,0,1,2
3,1.19,111,0.00899954,-0.99563444,-0.0430389,-0.32061985,-0.28520077,0.10991263,-23.82344246,24.46652985,-78.16427612,-0.18625683,-1.36139178,-1.13459527,0.99987894,0.00174283,0.01186341,0.00991964,-0.00385037,0.00413181,-0.00330688,0,0,0,0,1,2
1,1.19,116,0.07971527,-1.00023198,0.07197394,-0.17120841,0.84082222,-0.70191646,-46.76995087,0.3215434,-99.91230774,0.22532903,0.18303812,-0.12163197,0.9999963,-0.00196806,-0.00159522,0.00106458,-0.00639313,-0.00480224,0.00594848,0,0,0,0,1,2
4,1.19,113,0.064046,-0.91516125,-0.38153395,0.64199024,0.27506691,0.37458107,-23.70651817,-35.34054184,-72.31803131,0,0,0,1,0,0,0,0,0,0,0,0,0,0,1,2
2,1.1901,92,-0.15281002,-0.97007912,-0.17268246,-0.50681716,2.28752446,0.00783931,-58.37474442,-10.23092651,-88.89213562,-0.2294105,1.16504717,8.03954601,0.99748504,0.00270965,-0.01000141,-0.07011725,0.00532546,0.00556133,-0.00279222,0,0,0,0,1,2
1,1.2,117,0.08196393,-1.00058424,0.07294964,-0.19519322,1.22263551,-0.4801318,-46.27301788,0.90616781,-99.85384369,0.22428951,0.18688792,-0.108968,0.99999636,-0.00195884,-0.00162904,0.00095411,-0.00852355,-0.00384256,0.00652687,0,0,0,0,1,2
3,1.2,112,0.00054507,-0.99857831,-0.04120447,-0.3569417,-0.38851973,0.02127344,-23.82344246,24.46652985,-78.16427612,-0.18984921,-1.36178517,-1.13836718,0.99987853,0.0017746,0.01186648,0.00995293,0.00467566,0.00614537,-0.00069279,0,0,0,0,1,2
4,1.2,114,0.06344128,-0.92220527,-0.37863833,0.83925515,0.03798433,0.12172145,-23.38497543,-35.39900589,-71.41186523,0,0,0,1,0,0,0,0,0,0,0,0,0,0,1,2
2,1.2001,93,-0.14767115,-0.96965319,-0.1831236,-0.50669265,2.42617154,-0.0254834,-59.07629395,-9.03244686,-88.74597931,-0.23794226,1.16968012,8.06217384,0.99747056,0.00278873,-0.01003597,-0.07031502,0.00009532,-0.00463613,-0.0022467,0,0,0,0,1,2
3,1.21,113,0.00116833,-1.00119042,-0.04894869,-0.47944033,-0.11253469,0.14649259,-23.23881912,24.17421722,-77.93042755,-0.19466138,-1.36330831,-1.13929129,0.99987823,0.00181681,0.01187933,0.00996152,0.00411964,-0.00138986,0.0022757,0,0,0,0,1,2
1,1.21,118,0.08314892,-1.00257754,0.07665575,-0.1591493,1.08381116,-0.20873079,-46.50687027,0.78924292,-99.79537964,0.22351819,0.18814117,-0.09791724,0.99999642,-0.00195196,-0.00164017,0.00085769,-0.00950619,-0.00027257,0.00886135,0,0,0,0,1,2
4,1.21,115,0.06518229,-0.92926651,-0.37439871,0.75090134,0.00412397,0.07065197,-23.00496864,-36.65594864,-71.76264191,0,0,0,1,0,0,0,0,0,0,0,0,0,0,1,2
2,1.2101,94,-0.14868335,-0.97479379,-0.18701984,-0.49136141,1.7934866,-0.27778935,-59.36860657,-8.97398376,-89.03829193,-0.30065608,1.17939067,8.08367634,0.9974547,0.00334247,-0.01008139,-0.07050783,0.00024327,-0.00718443,0.00359444,0,0,0,0,1,2
3,1.22,114,0.00592434,-1.00516808,-0.04943947,-0.42557931,-0.18214564,0.19786668,-22.9465065,24.11575508,-78.04735565,-0.19892707,-1.3653816,-1.14090073,0.99987781,0.00185438,0.01189703,0.00997603,-0.00055234,-0.00163641,0.00640852,0,0,0,0,1,2
1,1.22,119,0.07898508,-1.00843859,0.08234333,0.11362065,0.60015672,0.13470146,-46.85764313,0.58462435,-100.0876923,0.26248184,0.19889131,-0.09151332,0.99999559,-0.00229197,-0.00173382,0.00080258,-0.00487628,0.004799,0.01481507,0,0,0,0,1,2
4,1.22,116,0.06401584,-0.93062729,-0.37295371,0.39427325,0.2255307,0.20450091,-23.38497543,-35.57439423,-71.35340118,0,0,0,1,0,0,0,0,0,0,0,0,0,0,1,2
2,1.2201,95,-0.14751869,-0.98062301,-0.18202201,-0.65434176,0.75961173,-0.23578243,-59.10552216,-8.94475269,-88.86290741,-0.3081781,1.18308234,8.08951283,0.99745059,0.00341073,-0.01010872,-0.07055936,-0.00159278,-0.0003845,0.00818975,0,0,0,0,1,2
3,1.23,115,0.00934617,-1.00572467,-0.04817533,-0.33776736,-0.18170461,0.16352786,-23.38497543,24.49576187,-78.04735565,-0.20643307,-1.29355359,-1.14361346,0.99988467,0.00191391,0.01126958,0.00999942,-0.00367031,-0.00025877,0.00700141,0,0,0,0,1,2
1,1.23,120,0.06929059,-1.01093948,0.07774529,-0.0064313,0.18171667,0.1375421,-46.85764313,1.31540489,-99.85384369,0.2625528,0.19737995,-0.08980484,0.99999559,-0.00229255,-0.00172066,0.00078764,0.00507858,-0.00047587,0.01629636,0,0,0,0,1,2
4,1.23,117,0.06468204,-0.92643625,-0.37649688,0.05633752,0.32627952,0.33574522,-24.05729294,-35.74977875,-71.82110596,0,0,0,1,0,0,0,0,0,0,0,0,0,0,1,2
2,1.2301,96,-0.15112381,-0.9742226,-0.17457232,-0.60189456,0.3469291,-0.31112072,-59.10552216,-8.94475269,-88.86290741,-0.31457126,1.18676555,8.09130669,0.99744898,0.00346881,-0.01013679,-0.0705756,0.00330185,0.00593455,0.00128882,0,0,0,0,1,2
3,1.24,116,0.01175274,-1.00137234,-0.05193478,-0.33663177,-0.02661802,0.27015445,-23.47266769,24.64191818,-78.04735565,-0.20980598,-1.29626966,-1.14366984,0.99988437,0.00194359,0.01129299,0.01000029,-0.00527498,-0.00409808,0.0028696,0,0,0,0,1,2
1,1.24,121,0.06418627,-1.00666869,0.07505331,-0.5011642,-0.31054217,0.07132,-46.85764313,1.31540489,-99.85384369,0.25732478,0.19690643,-0.09259907,0.99999571,-0.00224696,-0.00171651,0.00081193,0.00984451,-0.00279292,0.01149553,0,0,0,0,1,2
4,1.24,118,0.06436325,-0.92103755,-0.37935409,0.09191045,0.30856588,0.36955687,-24.05729294,-35.74977875,-71.82110596,0,0,0,1,0,0,0,0,0,0,0,0,0,0,1,2
2,1.2401,97,-0.1567758,-0.96950537,-0.17278007,-0.53097928,0.12294018,-0.34947956,-59.51476288,-8.91552162,-88.65828705,-0.31990859,1.19042265,8.09097767,0.99744868,0.00351749,-0.01016534,-0.07057328,0.00977263,0.00696747,-0.00264857,0,0,0,0,1,2
3,1.25,117,0.0082008,-0.99634564,-0.04418639,-0.2469116,-0.23489232,0.33701646,-22.77112007,22.80035019,-78.07658386,-0.21229365,-1.29974377,-1.14577055,0.99988383,0.0019658,0.01132305,0.01001892,-0.00193474,0.00346905,-0.00259329,0,0,0,0,1,2
1,1.25,122,0.06740853,-0.99830037,0.06785072,-0.41088155,-0.36160117,0.05146163,-46.79918289,-0.17538731,-99.03536987,0.25295746,0.19667214,-0.09594963,0.99999577,-0.0022089,-0.00171443,0.0008411,0.00600457,-0.00927828,0.00287234,0,0,0,0,1,2
4,1.25,119,0.06554816,-0.91819459,-0.37358147,-0.08462451,0.22415487,0.2322102,-23.7357502,-35.74977875,-71.67494965,0,0,0,1,0,0,0,0,0,0,0,0,0,0,1,2
2,1.2501,98,-0.15761255,-0.96936798,-0.16919751,-0.52969015,0.60445398,-0.29138693,-59.86553574,-9.67553329,-88.74597931,-0.32595238,1.19438589,8.09542847,0.99744534,0.00357293,-0.01019598,-0.07061262,0.01079138,0.01057069,-0.00326391,0,0,0,0,1,2
1,1.26,123,0.07458038,-0.99653476,0.06878867,0.21632692,-0.42382723,0.09631412,-46.97456741,1.75387311,-99.41537476,0.25480267,0.1960362,-0.10038751,0.99999577,-0.00222506,-0.00170878,0.00087985,-0.00127548,-0.00820382,0.00168384,0,0,0,0,1,2
3,1.26,118,0.00230028,-0.9952327,-0.04229957,-0.29722416,-0.68637931,0.45172673,-22.77112007,22.80035019,-78.07658386,-0.21531917,-1.30459321,-1.15232301,0.99988264,0.00199327,0.01136498,0.01007646,0.00384981,0.00536077,-0.00395678,0,0,0,0,1,2
4,1.26,120,0.06734915,-0.91389263,-0.36760607,-0.0480411,0.08657121,0.21146257,-23.70651817,-35.51593018,-71.64571381,0,0,0,1,0,0,0,0,0,0,0,0,0,0,1,2
2,1.2601,99,-0.15255231,-0.97073871,-0.16941957,-0.54662925,1.33120322,-0.4049837,-59.33937454,-8.91552162,-88.54135895,-0.22262257,1.13612235,8.10595036,0.99744695,0.00263853,-0.00975225,-0.07069436,0.00538341,0.0102265,-0.00275127,0,0,0,0,1,2
1,1.27,124,0.08071887,-0.99808973,0.07570741,0.3781687,-0.61334068,0.39949584,-46.18532562,1.34463608,-99.41537476,0.25828466,0.27945137,-0.11225931,0.9999941,-0.00225634,-0.00243645,0.00098514,-0.00691407,-0.00147715,0.00416245,0,0,0,0,1,2
3,1.27,119,-0.00386267,-0.99794006,-0.04410034,-0.1200469,-0.84210283,0.46764141,-23.56036186,24.87576675,-77.95966339,-0.21655594,-1.30965436,-1.16046667,0.99988151,0.00200532,0.01140889,0.01014772,0.01000333,0.00371367,-0.00135058,0,0,0,0,1,2
4,1.27,121,0.06641273,-0.91389173,-0.37205997,0.14671236,0.1203997,0.27769601,-23.64805603,-35.31131363,-71.76264191,0,0,0,1,0,0,0,0,0,0,0,0,0,0,1,2
2,1.2701,100,-0.14929558,-0.9739154,-0.17536251,-0.38549608,1.38143694,-0.4061287,-59.33937454,-8.91552162,-88.54135895,-0.22834787,1.14261138,8.11797714,0.99743879,0.00269339,-0.00980492,-0.07079961,0.00074174,0.0036054,0.00079825,0,0,0,0,1,2
3,1.28,120,-0.00923623,-1.0019666,-0.04662783,0.03644994,-0.84042513,0.29457688,-22.85881233,24.90499878,-78.25197601,-0.2244156,-1.48518443,-1.16838515,0.99986196,0.00209027,0.01293965,0.01022041,0.01467293,0.00140141,0.00264613,0,0,0,0,1,2
1,1.28,125,0.08308942,-0.9980281,0.07932695,0.70311999,-0.939928,0.66180938,-46.65302658,0.67231804,-99.21075439,0.26454291,0.27357772,-0.12260795,0.99999398,-0.00231112,-0.00238494,0.00107546,-0.00821535,0.00206184,0.00453334,0,0,0,0,1,2
4,1.28,122,0.06480763,-0.9155187,-0.37336391,0.37860546,-0.07150225,0.44370699,-22.82958221,-35.57439423,-71.32417297,0,0,0,1,0,0,0,0,0,0,0,0,0,0,1,2
2,1.2801,101,-0.14346541,-0.97627097,-0.1797864,-0.54675382,1.19255579,-0.37166101,-59.60245514,-9.17860222,-89.30137634,-0.23538561,1.1484195,8.12795734,0.99743187,0.0027591,-0.00985089,-0.07088716,-0.00542173,-0.00021828,0.00287765,0,0,0,0,1,2
3,1.29,121,-0.00992821,-1.00294673,-0.05013511,-0.03667467,-0.47578856,0.17797521,-23.58959389,24.52499199,-77.8719635,-0.2247902,-1.48718917,-1.17304575,0.99986124,0.00209424,0.01295702,0.01026115,0.01309932,-0.00195052,0.00381601,0,0,0,0,1,2
1,1.29,126,0.07655461,-1.00553262,0.08073599,1.12193882,-1.54331648,0.77485842,-46.65302658,0.67231804,-99.21075439,0.2745553,0.2670505,-0.1393372,0.99999374,-0.00239877,-0.00232753,0.00122152,-0.00128254,0.00275493,0.01164609,0,0,0,0,1,2
4,1.29,123,0.06572913,-0.92254573,-0.37595665,0.73573542,-0.38188434,0.48271799,-22.82958221,-35.57439423,-71.32417297,0,0,0,1,0,0,0,0,0,0,0,0,0,0,1,2
2,1.2901,102,-0.14268097,-0.97606337,-0.18178692,-0.51197881,0.76167476,-0.39459059,-59.51476288,-9.06167793,-88.86290741,-0.24146093,1.15367329,8.13377857,0.99742776,0.00281573,-0.00989272,-0.07093842,-0.00612393,-0.00211541,0.00289549,0,0,0,0,1,2
3,1.3,122,-0.00810962,-1.00587809,-0.05225439,-0.09385034,-0.11015228,-0.06022559,-23.7357502,24.14498711,-77.81350708,-0.22571582,-1.4866302,-1.17414498,0.99986124,0.00210239,0.01295204,0.01027083,0.01136304,-0.00392471,0.00688962,0,0,0,0,1,2
1,1.3,127,0.06844088,-1.00796402,0.08281568,0.58667511,-1.6537472,0.6883707,-46.53609848,1.2277112,-99.61999512,0.27914229,0.26146948,-0.15672648,0.99999356,-0.00243908,-0.00227841,0.00137325,0.0068905,0.00453954,0.0136499,0,0,0,0,1,2
4,1.3,124,0.06369295,-0.92551082,-0.37740064,0.80632514,-0.32916486,0.42981598,-23.47266769,-35.60362244,-71.32417297,0,0,0,1,0,0,0,0,0,0,0,0,0,0,1,2
2,1.3001,103,-0.14297885,-0.97546536,-0.18068513,-0.63850063,0.00289027,-0.3322576,-59.36860657,-9.55860806,-88.92136383,-0.24768665,1.1569438,8.13214016,0.9974283,0.0028718,-0.00991737,-0.07092474,-0.0056271,-0.00102939,0.00217521,0,0,0,0,1,2
3,1.31,123,-0.00207427,-1.00171137,-0.05099898,-0.308853,-0.0395953,-0.2688224,-23.7357502,24.14498711,-77.81350708,-0.22880439,-1.48395658,-1.17457771,0.99986148,0.00212915,0.01292843,0.01027492,0.00524085,-0.00280912,0.00284768,0,0,0,0,1,2
1,1.31,128,0.0614519,-1.00708556,0.08134004,0.2600244,-1.24038875,0.53304678,-47.12072372,1.46156096,-99.85384369,0.28079259,0.25711843,-0.16965699,0.99999344,-0.00245369,-0.00224014,0.00148603,0.01370712,0.00307906,0.01218113,0,0,0,0,1,2
4,1.31,125,0.06117024,-0.92413867,-0.37549388,0.55882525,-0.37538654,0.05039721,-23.70651817,-36.01286316,-71.64571381,0,0,0,1,0,0,0,0,0,0,0,0,0,0,1,2
2,1.3101,104,-0.14556387,-0.97340554,-0.17391326,-0.72785354,-0.30993336,-0.17768264,-59.36860657,-8.94475269,-88.7167511,-0.14896016,1.15617144,8.11560917,0.99744064,0.00201055,-0.00997204,-0.07077225,-0.00251109,0.00493159,-0.00057006,0,0,0,0,1,2
3,1.32,124,0.00262584,-0.99773967,-0.04895414,-0.23917705,-0.16004029,-0.35720614,-23.70651817,24.70038033,-77.60888672,-0.23120797,-1.48045921,-1.17628503,0.9998616,0.00215001,0.01289766,0.01029003,0.00048247,-0.00090118,-0.00107369,0,0,0,0,1,2
1,1.32,129,0.0621824,-1.00082695,0.07909781,-0.2803961,-0.82936293,0.18897705,-46.97456741,1.95849168,-99.29844666,0.2650156,0.15680131,-0.17370038,0.99999523,-0.00231476,-0.00136484,0.00151898,0.01205817,0.00138695,0.0058406,0,0,0,0,1,2
4,1.32,126,0.06043315,-0.9195984,-0.37360471,0.09825311,-0.38705918,-0.35871387,-23.91113663,-35.34054184,-71.7334137,0,0,0,1,0,0,0,0,0,0,0,0,0,0,1,2
2,1.3201,105,-0.15267913,-0.97041494,-0.1706267,-0.69103056,-0.10604254,-0.05333425,-59.36860657,-8.94475269,-88.7167511,-0.15563591,1.15650105,8.11332798,0.99744189,0.00206866,-0.00997083,-0.07075299,0.00507768,0.00637198,-0.00285359,0,0,0,0,1,2
3,1.33,125,0.00355675,-0.99753261,-0.04635438,-0.1509473,-0.47129145,-0.41357911,-23.67728615,24.4080677,-77.95966339,-0.21264066,-1.4584074,-1.18213677,0.99986386,0.00198668,0.01270682,0.01033866,-0.00031215,0.00163042,-0.00137183,0,0,0,0,1,2
1,1.33,130,0.06768227,-0.99825567,0.070581,-0.10486092,-0.42741376,-0.09166299,-46.18532562,0.84770536,-100,0.26367646,0.15804677,-0.17780857,0.99999517,-0.00230314,-0.00137564,0.00155484,0.00505555,-0.00672258,0.00304322,0,0,0,0,1,2
4,1.33,127,0.06018954,-0.91615295,-0.37179056,0.02663169,-0.2429281,-0.7558834,-23.91113663,-35.34054184,-71.7334137,0,0,0,1,0,0,0,0,0,0,0,0,0,0,1,2
2,1.3301,106,-0.15638681,-0.9709962,-0.16704471,-0.5998047,0.59873289,0.00641966,-59.36860657,-10.64016342,-89.15522003,-0.16242592,1.15751112,8.11813641,0.99743873,0.0021288,-0.00997534,-0.07079543,0.00875457,0.01011275,-0.00229038,0,0,0,0,1,2
3,1.34,126,0.00367863,-0.99807525,-0.04647525,-0.2371321,-0.66298574,-0.29516461,-22.44957542,24.17421722,-78.66120911,-0.21504253,-1.45577896,-1.18883598,0.99986351,0.00200814,0.01268355,0.01039734,-0.00012634,0.00130662,-0.00082956,0,0,0,0,1,2
1,1.34,131,0.07178416,-0.99830681,0.06662834,-0.1602242,-0.25421122,-0.18867165,-46.18532562,0.84770536,-100,0.2619068,0.16012463,-0.18007985,0.99999523,-0.00228776,-0.00139375,0.00157468,0.00098267,-0.01063895,0.00309418,0,0,0,0,1,2
4,1.34,128,0.06166603,-0.91868776,-0.37334758,0.34539276,-0.17239574,-0.81378984,-23.61882401,-35.57439423,-71.70417786,0,0,0,1,0,0,0,0,0,0,0,0,0,0,1,2
2,1.3401,107,-0.15542908,-0.97310829,-0.16950649,-0.45516077,1.30414116,0.01317253,-59.4270668,-9.00321579,-89.15522003,-0.16882873,1.15972161,8.13004112,0.9974311,0.00218694,-0.0099904,-0.07089964,0.00741907,0.00817189,0.00002797,0,0,0,0,1,2
3,1.35,127,0.00451876,-1.00166428,-0.04925765,-0.27348021,-0.52404624,-0.34541968,-22.82958221,24.58345413,-77.81350708,-0.21780175,-1.45258701,-1.19416916,0.99986339,0.00203252,0.01265535,0.01044413,-0.00080622,-0.00126602,0.00290031,0,0,0,0,1,2
1,1.35,132,0.07412452,-0.99818736,0.07221903,-0.12863648,0.05889551,-0.14281498,-47.03303146,1.49079216,-99.64922333,0.26067621,0.16150245,-0.17929637,0.99999523,-0.00227703,-0.00140581,0.00156786,-0.00130317,-0.00502527,0.00354345,0,0,0,0,1,2
4,1.35,129,0.06277402,-0.9212296,-0.37441704,0.39886656,-0.22621121,-0.67632461,-23.61882401,-37.88365936,-71.52879333,0,0,0,1,0,0,0,0,0,0,0,0,0,0,1,2
2,1.3501,108,-0.14927743,-0.97347504,-0.17189969,-0.5612545,1.89118826,0.02123351,-59.16398621,-9.50014591,-89.2721405,-0.17712282,1.16291177,8.14748001,0.99741983,0.00226263,-0.01001269,-0.07105218,0.00127281,0.00602639,-0.0002315,0,0,0,0,1,2
3,1.36,128,0.00451898,-1.00154412,-0.04919723,-0.28941858,-0.30011132,-0.18569462,-23.29728127,24.23267937,-78.13504791,-0.22071645,-1.45087838,-1.19716835,0.99986321,0.00205812,0.01264012,0.0104706,-0.00076736,-0.00116447,0.00277684,0,0,0,0,1,2
1,1.36,133,0.07181569,-0.99933189,0.08161991,0.42227244,0.41290623,-0.20318463,-46.94533539,2.01695418,-100.1169205,0.26519662,0.16320972,-0.17532714,0.99999511,-0.00231645,-0.00142073,0.00153331,0.00115505,0.00422612,0.00520255,0,0,0,0,1,2
4,1.36,130,0.06547488,-0.92244488,-0.37882257,0.45398924,-0.50611478,-0.42087641,-23.29728127,-35.5451622,-72.2888031,0,0,0,1,0,0,0,0,0,0,0,0,0,0,1,2
2,1.3601,109,-0.14808717,-0.97363859,-0.17809112,-0.47247559,1.49316323,0.05054158,-59.74861145,-8.6816721,-88.83367157,-0.19080314,1.16936028,8.16102123,0.9974106,0.00238689,-0.01006005,-0.07117128,-0.00004559,0.00012078,0.00080841,0,0,0,0,1,2
3,1.37,129,0.00378145,-1.00297952,-0.05046534,0.02400902,0.3863605,-0.03377686,-23.29728127,24.23267937,-78.13504791,-0.2204504,-1.45035124,-1.19333696,0.99986362,0.00205533,0.01263562,0.01043713,0.00002764,-0.00234576,0.00424429,0,0,0,0,1,2
1,1.37,134,0.07014353,-1.00364053,0.08267269,0.64084214,0.10264573,-0.1643426,-47.26688004,1.49079216,-99.94153595,0.31056091,0.12581985,-0.17258231,0.99999464,-0.0027118,-0.0010939,0.00150903,0.00298496,0.00468598,0.00944994,0,0,0,0,1,2
4,1.37,131,0.06566063,-0.92281348,-0.37858328,0.57996649,-0.78723645,-0.07972459,-23.12189484,-36.04209137,-71.64571381,0,0,0,1,0,0,0,0,0,0,0,0,0,0,1,2
2,1.3701,110,-0.14723364,-0.97530872,-0.17715025,-0.42022216,1.15092981,-0.09387473,-59.74861145,-8.6816721,-88.83367157,-0.19661424,1.17235124,8.17130756,0.9974038,0.00244023,-0.01008226,-0.07126134,-0.001036,0.0015361,0.00212409,0,0,0,0,1,2
3,1.38,130,0.00549212,-1.0005132,-0.04926045,0.07790176,0.99155331,0.13197489,-23.18035698,24.26191139,-78.16427612,-0.22274953,-1.4380374,-1.18350017,0.99986589,0.0020732,0.01252814,0.01035136,-0.00170215,-0.00125049,0.00177668,0,0,0,0,1,2
1,1.38,135,0.06965674,-1.00777888,0.08634057,0.26394746,0.13292342,-0.07388048,-47.03303146,1.52002335,-99.50306702,0.31329158,0.12645322,-0.17138997,0.99999458,-0.00273563,-0.00109942,0.00149867,0.00328759,0.00745825,0.01380099,0,0,0,0,1,2
4,1.38,132,0.06485869,-0.92244613,-0.37876219,0.63289392,-0.77208126,0.05901188,-23.12189484,-36.04209137,-71.64571381,0,0,0,1,0,0,0,0,0,0,0,0,0,0,1,2
2,1.3801,111,-0.15176873,-0.97739112,-0.17959118,-0.34859657,1.0978111,-0.0603176,-59.63168716,-10.99093819,-89.2721405,-0.20165104,1.1749227,8.18126678,0.99739718,0.00248655,-0.01010129,-0.0713485,0.00306509,-0.00040724,0.00533357,0,0,0,0,1,2
3,1.39,131,0.00709102,-0.99951625,-0.04684414,-0.13264011,1.14610612,0.25495714,-23.41420555,24.75884247,-77.84273529,-0.22403438,-1.44003808,-1.17189503,0.9998666,0.00208332,0.01254569,0.01025027,-0.00319017,0.00116731,0.00071751,0,0,0,0,1,2
1,1.39,136,0.06524986,-1.01089966,0.08591185,0.54512632,0.55324447,-0.077874,-46.76995087,1.52002335,-99.47383881,0.31913409,0.12680121,-0.16620784,0.99999458,-0.00278657,-0.0011025,0.00145351,0.00790599,0.00673433,0.01656766,0,0,0,0,1,2
4,1.39,133,0.06092425,-0.91922337,-0.37427032,0.40024704,-0.5336991,0.22540742,-23.7357502,-35.42823792,-71.85033417,0,0,0,1,0,0,0,0,0,0,0,0,0,0,1,2
2,1.3901,112,-0.15516563,-0.97638428,-0.17592493,-0.52756113,0.99528003,-0.02464156,-59.54399109,-10.05553913,-88.80444336,-0.20832038,1.17695665,8.18998528,0.99739146,0.00254663,-0.01011465,-0.07142499,0.00673395,0.00313358,0.00428977,0,0,0,0,1,2
1,1.4,137,0.05585987,-1.00971735,0.07915437,-0.03040743,0.84209508,-0.27047983,-46.76995087,1.69541073,-99.47383881,0.31944808,0.12883665,-0.15759832,0.99999458,-0.00278925,-0.00112047,0.00137843,0.01717695,0.00001607,0.01424673,0,0,0,0,1,2
4,1.4,134,0.05703977,-0.91770041,-0.37449786,-0.10094057,0.05251608,0.1770777,-23.88190651,-35.86670685,-71.47032928,0,0,0,1,0,0,0,0,0,0,0,0,0,0,1,2
2,1.4001,113,-0.15542206,-0.96936011,-0.17060007,-0.61609787,1.30524349,0.03239784,-59.0178299,-10.17246437,-88.51213074,-0.21632287,1.17898858,8.20166779,0.99738377,0.00261858,-0.01012708,-0.07152738,0.00833542,0.00725827,-0.0034096,0,0,0,0,1,2
1,1.41,138,0.05880874,-1.00110936,0.07225703,-0.74795794,0.99019068,-0.36338824,-47.0914917,1.95849168,-99.8830719,0.31272876,0.13168375,-0.14694464,0.99999487,-0.00273054,-0.00114565,0.00128546,0.01365198,-0.0061551,0.00538832,0,0,0,0,1,2
4,1.41,135,0.05574549,-0.91624439,-0.37417489,-0.03318309,0.46788409,0.09595989,-23.79421234,-35.83747482,-71.90879822,0,0,0,1,0,0,0,0,0,0,0,0,0,0,1,2
2,1.4101,114,-0.1574804,-0.96723604,-0.16855845,-0.54460174,1.5136832,-0.07078204,-59.22245026,-8.79859638,-88.39520264,-0.11511386,1.06875157,8.22799873,0.99737883,0.00167102,-0.00923038,-0.07174732,0.01033272,0.00855402,-0.00548998,0,0,0,0,1,2
3,1.42,132,-0.0005996,-0.99938273,-0.04864389,0.08155265,-0.15251473,0.20184022,-23.09266281,24.29114342,-77.95966339,-0.2244021,-1.446069,-1.16422832,0.9998666,0.00208622,0.01259842,0.01018351,0.0043897,-0.00061414,0.00044337,0,0,0,0,1,2
1,1.42,139,0.06862515,-0.99340528,0.06828952,-0.7860074,1.1112746,-0.23756428,-47.12072372,1.75387311,-99.50306702,0.21196087,0.14138314,-0.13395467,0.99999684,-0.00185115,-0.00123163,0.00117125,0.00337338,-0.00901625,-0.00188171,0,0,0,0,1,2
4,1.42,136,0.05525644,-0.92057699,-0.37356144,0.1782584,0.65969944,-0.00977569,-22.91727448,-35.57439423,-71.55802155,0,0,0,1,0,0,0,0,0,0,0,0,0,0,1,2
2,1.4201,115,-0.15779181,-0.97005802,-0.16793434,-0.43751872,1.67045832,-0.19243175,-59.22245026,-8.79859638,-88.39520264,-0.1218513,1.07363224,8.24312687,0.99736881,0.00173394,-0.00926841,-0.07187954,0.00878263,0.00837123,-0.00283999,0,0,0,0,1,2
3,1.43,133,0.0003145,-1.00100946,-0.0490076,-0.09587961,-0.2215877,0.13041605,-23.03420067,24.14498711,-77.57965088,-0.23759766,-1.46693957,-1.16586256,0.99986398,0.00220339,0.01277933,0.01019958,0.00340946,-0.00084555,0.00211344,0,0,0,0,1,2
1,1.43,140,0.0787139,-0.99427015,0.07265989,-0.21670429,1.29147315,0.00691237,-47.00379944,1.40309846,-99.56153107,0.21074159,0.14032994,-0.12096532,0.99999708,-0.00184036,-0.00122266,0.00105787,-0.00650183,-0.00342339,-0.00000617,0,0,0,0,1,2
4,1.43,137,0.0573519,-0.92124271,-0.37375125,0.22996479,0.849491,-0.00742033,-22.91727448,-35.57439423,-71.55802155,0,0,0,1,0,0,0,0,0,0,0,0,0,0,1,2
2,1.4301,116,-0.15471396,-0.9733699,-0.17290863,-0.52668756,2.08759618,-0.30889815,-59.4270668,-8.82782841,-89.18444824,-0.13005896,1.08040524,8.26194286,0.99735636,0.00181115,-0.00932191,-0.07204401,0.00515787,0.00419452,0.00072545,0,0,0,0,1,2
3,1.44,134,-0.00194273,-1.00070655,-0.04930579,0.00900625,-0.28999504,0.04297877,-23.09266281,24.70038033,-78.19351196,-0.23753363,-1.46752071,-1.16874838,0.99986362,0.0022032,0.01278435,0.01022476,0.00538597,-0.00099356,0.00176626,0,0,0,0,1,2
1,1.44,141,0.07862174,-0.99999219,0.07579187,0.64485997,1.02330816,0.23270515,-47.17918777,1.40309846,-99.70768738,0.21789336,0.13723028,-0.11141469,0.99999708,-0.00190264,-0.00119571,0.00097455,-0.0060392,-0.00080319,0.00590762,0,0,0,0,1,2
4,1.44,138,0.05661127,-0.9227559,-0.37444288,0.26608407,0.76280665,0.02512008,-23.2095871,-35.42823792,-71.82110596,0,0,0,1,0,0,0,0,0,0,0,0,0,0,1,2
2,1.4401,117,-0.14777434,-0.97143865,-0.17799734,-0.47352782,1.96756923,-0.36331809,-59.66091537,-9.3539896,-88.57059479,-0.13754198,1.08749986,8.27959442,0.99734443,0.00188218,-0.00937867,-0.07219826,-0.00138998,-0.00102506,-0.0014248,0,0,0,0,1,2
3,1.45,135,-0.00552956,-1.00036943,-0.04790713,-0.04595616,-0.04673082,-0.05796225,-22.74188805,24.6711483,-77.72580719,-0.23799071,-1.46696389,-1.16923213,0.99986362,0.0022072,0.01277944,0.01022902,0.00896321,0.00039384,0.00126383,0,0,0,0,1,2
1,1.45,142,0.07163195,-1.00302064,0.075231,0.1325964,0.42644036,0.33575711,-47.17918777,1.40309846,-99.70768738,0.21951184,0.13355602,-0.10751719,0.99999708,-0.00191669,-0.0011637,0.00094049,0.00107655,-0.00165176,0.0083924,0,0,0,0,1,2
4,1.45,139,0.05765956,-0.921179,-0.37393311,0.05481532,0.55430114,0.0956481,-23.53113174,-36.15901566,-71.7334137,0,0,0,1,0,0,0,0,0,0,0,0,0,0,1,2
3,1.46,136,-0.00249154,-1.00317931,-0.04990795,0.00567596,0.47322324,-0.06733774,-23.82344246,24.11575508,-77.95966339,-0.23792161,-1.46607661,-1.16452789,0.9998641,0.00220599,0.01277179,0.01018795,0.00602355,-0.00147701,0.00424581,0,0,0,0,1,2
1,1.46,143,0.066892,-1.00371861,0.08174681,-0.02287381,0.00764618,0.26966006,-46.68225479,0.43846828,-99.97076416,0.21928364,0.13086171,-0.10763188,0.99999714,-0.00191468,-0.00114018,0.00094145,0.00583741,0.00480484,0.00922807,0,0,0,0,1,2
4,1.46,140,0.06085689,-0.92295814,-0.37718663,0.09253751,0.26015231,0.15926467,-23.2095871,-36.01286316,-71.58725739,0,0,0,1,0,0,0,0,0,0,0,0,0,0,1,2
3,1.47,137,0.00761315,-1.00054443,-0.05107992,0.11454307,0.66798079,-0.19102947,-23.56036186,24.17421722,-77.34580231,-0.23675735,-1.46385396,-1.15798926,0.99986506,0.00219491,0.01275263,0.01013073,-0.00412182,-0.00278095,0.00195843,0,0,0,0,1,2
1,1.47,144,0.06215155,-1.00608051,0.08702646,0.43086442,-0.4735989,0.26584199,-46.06840134,0.02923122,-99.35691071,0.30429605,0.01837546,-0.11520343,0.99999607,-0.00265564,-0.00015769,0.00100576,0.01023176,0.00950489,0.01163074,0,0,0,0,1,2
4,1.47,141,0.0657193,-0.92243361,-0.37961522,0.23389958,0.32972497,0.1400497,-23.2095871,-36.01286316,-71.58725739,0,0,0,1,0,0,0,0,0,0,0,0,0,0,1,2
3,1.48,138,0.01244703,-1.00087965,-0.04818512,0.10535654,0.08591504,-0.22475071,-23.56036186,24.17421722,-77.34580231,-0.22302106,-1.36143219,-1.15782869,0.99987626,0.00206602,0.01186016,0.01012617,-0.00846817,0.00005063,0.00229351,0,0,0,0,1,2
4,1.48,142,0.0699144,-0.92178321,-0.37801674,0.09152707,0.38002244,0.213824,-23.7357502,-34.98976898,-71.70417786,0,0,0,1,0,0,0,0,0,0,0,0,0,0,1,2
2,1.4801,118,-0.15524402,-0.97391832,-0.16854972,-0.76251346,0.41622967,-0.25614011,-59.25167847,-9.090909,-88.39520264,-0.14673093,1.1393894,8.29034805,0.99733311,0.00199576,-0.00982431,-0.07229289,0.00676898,0.00886521,0.00060765,0,0,0,0,1,2
3,1.49,139,0.01048044,-0.9988575,-0.05023985,0.09031697,-0.5731166,-0.14773674,-23.61882401,24.4080677,-77.81350708,-0.22214465,-1.360232,-1.16364062,0.9998759,0.00205887,0.01184966,0.01017678,-0.00522091,-0.00226865,0.00027418,0,0,0,0,1,2
4,1.49,143,0.07071956,-0.91955644,-0.37609562,-0.31779146,0.55123621,0.24319066,-23.70651817,-35.92516708,-71.76264191,0,0,0,1,0,0,0,0,0,0,0,0,0,0,1,2
2,1.4901,119,-0.15908033,-0.97200799,-0.16802062,-0.76130736,1.0199039,-0.2665174,-59.45629883,-9.58784008,-89.06752014,-0.15568842,1.14383233,8.29848289,0.99732739,0.00207723,-0.00985718,-0.07236447,0.01095364,0.00920688,-0.00069146,0,0,0,0,1,2
