SensorId, TimeStamp (s), FrameNumber, AccX (g), AccY (g), AccZ (g), GyroX (deg/s), GyroY (deg/s), GyroZ (deg/s), MagX (uT), MagY (uT), MagZ (uT), EulerX (deg), EulerY (deg), EulerZ (deg), QuatW, QuatX, QuatY, QuatZ, LinAccX (g), LinAccY (g), LinAccZ (g), Pressure (kPa), Altitude (m), Temperature (degC), HeaveMotion (m),Rep,Clase 
1,0,0,0.17555963,0.97606802,-0.09865122,0.27965018,0.71896023,-1.90015197,-45.54224014,68.5764389,-91.99064636,0.90005094,3.35143089,-2.06642199,0.99937487,-0.00837699,-0.02909535,0.01825333,0.00310114,0.00413777,-0.00327696,0,0,0,0,1,1
2,0.0001,0,0.99066269,0.05954748,0.07753971,-0.34338412,-0.06873448,-0.43841609,-11.1370945,38.17597198,-67.7871933,1.8570168,-0.03070791,0.58946848,0.99985546,-0.01620598,0.00018458,-0.00514773,-0.00502613,-0.01310147,-0.00419647,0,0,0,0,1,1
4,0.0001,0,0.05358548,-0.91776741,-0.38147852,-0.85019022,0.17897956,-0.3094584,-25.25577354,28.1204319,-109.1201401,-0.19702086,0.06804299,7.92191219,0.99760962,0.00175624,-0.0004736,-0.06907755,0.00606487,-0.00126881,-0.00468025,0,0,0,0,1,1
1,0.01,1,0.18175842,0.97674841,-0.10231078,0.56069475,1.10443866,-1.80163431,-45.54224014,68.5764389,-91.99064636,0.98317301,3.38145065,-2.07098103,0.99936008,-0.00910774,-0.02934355,0.0183163,-0.00303551,0.00733846,-0.00156036,0,0,0,0,1,1
2,0.0101,1,0.99324715,0.06453728,0.07851743,-0.02183954,-0.10428815,-0.52968884,-10.69862556,37.91289139,-67.64103699,1.85651839,-0.03009405,0.59553432,0.99985522,-0.01620161,0.00017839,-0.00520056,-0.00220649,-0.009019,-0.0013163,0,0,0,0,1,1
4,0.0101,1,0.05450175,-0.91517729,-0.38057464,0.19670595,0.43402791,0.08986657,-24.49576187,26.71733475,-109.2370606,-0.19477928,0.06887268,7.92614365,0.99760711,0.00173724,-0.00048211,-0.06911439,0.00502714,-0.00135708,-0.00736081,0,0,0,0,1,1
1,0.02,2,0.18716696,0.97529411,-0.10303342,0.17596701,1.69055259,-1.56961,-45.74685669,68.22566223,-91.46448517,0.98164237,3.36747742,-2.08944488,0.99936092,-0.00909692,-0.02922047,0.01847595,-0.00822296,0.00712079,-0.00224861,0,0,0,0,1,1
2,0.0201,2,0.99420619,0.06594333,0.07392777,0.40607536,-0.2757225,-0.76352954,-10.99093819,38.3221283,-67.11487579,1.86111903,-0.02675608,0.59806752,0.99985445,-0.0162416,0.0001487,-0.0052222,-0.00574245,-0.00578968,-0.00071326,0,0,0,0,1,1
4,0.0201,2,0.05333391,-0.91244417,-0.38148186,0.69332308,0.67477363,0.28395909,-24.78807259,28.06196976,-109.5878372,-0.24521706,0.00172701,7.94773531,0.99759346,0.00213582,0.00013326,-0.06930133,0.00577341,-0.0030977,-0.00960967,0,0,0,0,1,1
1,0.03,3,0.1909347,0.9731707,-0.10055988,0.20507224,2.03807092,-1.15920627,-45.16223145,68.07950592,-91.34755707,0.9798395,3.35793161,-2.11100054,0.99935997,-0.00908518,-0.0291358,0.01866281,-0.01243761,0.00486609,-0.00410289,0,0,0,0,1,1
2,0.0301,3,0.99209869,0.0663022,0.0796406,0.15493834,-0.21833608,-0.91744411,-10.72785759,37.97135162,-67.61180878,1.86497927,-0.02734011,0.6066168,0.99985361,-0.01627533,0.0001524,-0.00529689,-0.00025549,-0.00804996,-0.00227514,0,0,0,0,1,1
4,0.0301,3,0.05417133,-0.91066015,-0.38348159,1.13707709,0.53590202,0.42310175,-25.13884735,27.12657166,-109.1493683,-0.233487,-0.00012962,7.95362806,0.99759024,0.00203257,0.00014244,-0.06935262,0.00398166,-0.00503951,-0.01044895,0,0,0,0,1,1
1,0.04,4,0.18929452,0.9748823,-0.09684495,0.40590969,1.57093763,-0.79732329,-45.16223145,68.98567963,-91.43524933,0.98090899,3.35153294,-2.12781286,0.99935871,-0.00909776,-0.02907848,0.01880926,-0.01077369,0.00102761,-0.00291262,0,0,0,0,1,1
2,0.0401,4,0.99045646,0.07031087,0.07807217,0.27952996,-0.3210322,-1.00738502,-10.72785759,37.97135162,-67.61180878,1.87306821,-0.02828932,0.60983825,0.9998523,-0.01634595,0.00015985,-0.00532514,0.00024768,-0.00386963,-0.00386953,0,0,0,0,1,1
4,0.0401,4,0.05589491,-0.91346818,-0.3814863,1.6317327,0.57133496,0.44340029,-25.25577354,27.65273285,-109.8509216,-0.21678703,-0.00204037,7.95963383,0.99758679,0.00188602,0.00014906,-0.06940489,0.00233671,-0.00238659,-0.00851118,0,0,0,0,1,1
1,0.05,5,0.18789732,0.97648722,-0.09403984,0.28343475,1.1520983,-0.36202124,-45.39608383,67.64103699,-91.46448517,0.98159373,3.34905696,-2.13990688,0.9993574,-0.00910641,-0.02905582,0.01891473,-0.00928955,-0.0019263,-0.00172134,0,0,0,0,1,1
2,0.0501,5,0.9911859,0.07031552,0.07746321,0.70898795,-0.13386363,-1.07971907,-11.10786343,37.85442734,-67.14411163,1.88137329,-0.03057433,0.60964215,0.99985099,-0.01641852,0.00017943,-0.00532377,-0.00039013,-0.0037531,-0.00319359,0,0,0,0,1,1
4,0.0501,5,0.05719554,-0.91658628,-0.37900591,1.94972575,0.51995665,0.44416693,-25.25577354,27.65273285,-109.8509216,-0.19694409,-0.00415752,7.96498156,0.99758387,0.00171199,0.00015556,-0.06945143,0.00111759,0.00076013,-0.00649582,0,0,0,0,1,1
1,0.06,6,0.18540582,0.97848374,-0.09620602,-0.25569046,1.14549255,0.00508974,-45.39608383,67.64103699,-91.46448517,0.99750209,3.44135475,-2.15277839,0.99932992,-0.00926332,-0.02985708,0.01903757,-0.0061592,0.00002903,0.00014936,0,0,0,0,1,1
2,0.0601,6,0.99133217,0.07376497,0.08012365,0.1188417,-0.04263521,-1.05480516,-10.84478188,38.02981567,-67.81642914,1.88951743,-0.0360179,0.61475641,0.99984968,-0.01648985,0.00022581,-0.00536919,0.00340273,-0.00196402,-0.00264983,0,0,0,0,1,1
4,0.0601,6,0.05982906,-0.91872042,-0.37749699,1.89624345,0.64126319,0.42833501,-25.10961723,25.10961723,-109.1201401,-0.17757943,-0.00566615,7.971416,0.99758023,0.00154249,0.00015704,-0.06950744,-0.00145954,0.00262021,-0.00494277,0,0,0,0,1,1
1,0.07,7,0.18437202,0.97572953,-0.09643176,-0.70413005,1.19235528,0.04480869,-45.48377609,68.31335449,-91.2306366,0.98843235,3.44294667,-2.16367483,0.99932849,-0.00918732,-0.02987159,0.01913035,-0.00424553,0.00034139,-0.0026083,0,0,0,0,1,1
2,0.0701,7,0.98875087,0.0714842,0.07797553,-0.07851266,-0.05581533,-1.15769839,-10.87401295,38.40982056,-67.43642426,1.89777386,-0.04027061,0.62206173,0.99984813,-0.0165621,0.00026148,-0.00543356,0.00065265,-0.0032103,-0.0055087,0,0,0,0,1,1
4,0.0701,7,0.05945526,-0.92129678,-0.37930956,2.17852449,0.6592527,0.41258025,-25.25577354,27.97427559,-109.003212,-0.14490668,0.0020374,7.97576571,0.99757808,0.00126272,0.00007021,-0.06954545,-0.0008909,0.00151069,-0.00189972,0,0,0,0,1,1
1,0.08,8,0.1829135,0.97443742,-0.09263724,-0.59115988,0.72444856,0.11325833,-45.86378098,68.78105927,-91.37679291,0.98131335,3.444767,-2.17002106,0.99932748,-0.00912719,-0.02988815,0.01918396,-0.00296051,-0.0031837,-0.00436719,0,0,0,0,1,1
2,0.0801,8,0.98837364,0.06583461,0.07952587,-0.40082538,-0.01688518,-1.22367561,-11.22478771,38.0590477,-67.46565247,1.90247917,-0.04425231,0.63530862,0.99984676,-0.01660338,0.00029407,-0.00554973,-0.00045329,-0.00907956,-0.00599057,0,0,0,0,1,1
4,0.0801,8,0.05835417,-0.92334026,-0.380395,1.98318768,0.59028482,0.3236869,-24.84653664,26.04501534,-109.7339935,-0.12470546,0.00129483,7.98128128,0.99757487,0.00108641,0.00006446,-0.06959347,0.00044526,0.00077113,0.00033266,0,0,0,0,1,1
2,0.0901,9,0.99033868,0.06751809,0.08087874,-0.65205002,-0.08090896,-1.34406471,-11.22478771,38.0590477,-67.46565247,1.90892112,-0.04950451,0.64904904,0.99984509,-0.01665988,0.00033759,-0.0056704,0.00120224,-0.00824738,-0.00383546,0,0,0,0,1,1
4,0.0901,9,0.05786106,-0.9222436,-0.38099983,1.85856521,0.48680103,0.2346195,-25.02192307,27.62350082,-109.7047653,-0.10581358,0.00098043,7.98557329,0.99757248,0.00092175,0.00005576,-0.06963084,0.00088586,-0.00053357,-0.00048067,0,0,0,0,1,1
2,0.1001,10,0.99228013,0.06988996,0.07684619,-0.18727513,-0.03121529,-1.45335436,-11.02016926,37.679039,-67.93334961,1.91898942,-0.05428217,0.65556455,0.99984336,-0.01674799,0.00037783,-0.00572798,-0.0016455,-0.0044985,-0.00215825,0,0,0,0,1,1
4,0.1001,10,0.05712183,-0.91873014,-0.38142446,1.91199756,0.50394768,0.26990181,-25.02192307,27.62350082,-109.7047653,-0.08638009,0.00040225,7.99012804,0.9975698,0.00075222,0.00004902,-0.06967049,0.00143196,-0.00260306,-0.00360889,0,0,0,0,1,1
4,0.1101,11,0.05935955,-0.91766459,-0.38378951,1.91231573,0.46916184,0.28676865,-25.05115509,28.09120178,-109.061676,-0.06694689,-0.00046498,7.99442482,0.99756736,0.00058252,0.00004477,-0.0697079,-0.0008191,-0.00552406,-0.00356604,0,0,0,0,1,1
1,0.12,9,0.18036103,0.97871304,-0.10259271,-0.57632858,-0.35254079,-0.09939245,-45.2206955,68.48874664,-91.02601624,1.02488697,3.43568635,-2.14893889,0.99932986,-0.00950023,-0.02980341,0.01901081,0.00005078,0.00563376,0.00035436,0,0,0,0,1,1
2,0.1201,11,0.99188662,0.07652704,0.07931583,-0.08069719,-0.15060918,-1.5607754,-11.31248188,36.45132828,-68.34259033,1.94416857,-0.06509893,0.66522908,0.99983901,-0.01696826,0.00046952,-0.00581399,0.00333745,-0.00003889,-0.00201791,0,0,0,0,1,1
4,0.1201,12,0.05794316,-0.91492158,-0.38542232,1.96631086,0.45138451,0.35630137,-25.02192307,27.38965225,-108.8570557,-0.1594363,0.01571103,8.00529385,0.99755991,0.00139752,-0.00003965,-0.06980266,0.00053659,-0.00793167,-0.0055636,0,0,0,0,1,1
1,0.13,10,0.18072492,0.97515291,-0.10221697,-0.39998934,-0.1942021,0.02617373,-45.86378098,68.5764389,-90.90908813,1.0213002,3.43575001,-2.14650965,0.99933052,-0.00946832,-0.02980477,0.0189887,-0.00075377,0.00563166,-0.00315627,0,0,0,0,1,1
2,0.1301,12,0.99246562,0.08490024,0.07980808,0.04533611,-0.10304844,-1.42175281,-11.31248188,36.45132828,-68.34259033,1.96212828,-0.07566003,0.6588918,0.99983662,-0.01712547,0.0005617,-0.00576034,0.00722572,0.00697014,-0.00101554,0,0,0,0,1,1
4,0.1301,13,0.05703021,-0.91570961,-0.38541991,2.16051197,0.36526582,0.33856815,-25.43115997,27.47734642,-109.1201401,-0.13759612,0.01397371,8.00868225,0.99755806,0.00120634,-0.00003779,-0.06983213,0.00169517,-0.00652747,-0.00488837,0,0,0,0,1,1
1,0.14,11,0.18364273,0.97701186,-0.0997517,-0.15491486,0.17342114,0.19350159,-45.98070526,68.66413116,-91.40602112,1.01950157,3.43784094,-2.14785147,0.99932992,-0.00945333,-0.02982319,0.01900008,-0.00342782,0.0030583,-0.00115976,0,0,0,0,1,1
2,0.1401,13,0.99075758,0.08503095,0.07987709,0.1888918,-0.22802305,-1.28495288,-11.19555664,38.20520401,-68.07950592,1.97860169,-0.08325065,0.65999126,0.999834,-0.01726959,0.00062694,-0.00577116,0.0073654,0.00675653,-0.00269255,0,0,0,0,1,1
4,0.1401,14,0.06026518,-0.9148708,-0.38445896,2.6049757,0.12217456,0.51092774,-25.34346581,27.79888916,-108.7401352,-0.11142431,0.00971484,8.01022625,0.99755734,0.00097591,-0.00001666,-0.06984553,-0.00166159,-0.00639027,-0.00583815,0,0,0,0,1,1
1,0.15,12,0.18321732,0.97508794,-0.09480928,-0.03615262,0.6090588,0.38158387,-45.77608871,68.66413116,-91.14293671,1.01810336,3.44223213,-2.15346098,0.9993279,-0.0094433,-0.02986125,0.01904896,-0.0032249,-0.00168174,-0.00350639,0,0,0,0,1,1
2,0.1501,14,0.98838037,0.08491113,0.08061162,-0.18586326,-0.17661558,-1.10553193,-11.1370945,36.94826126,-67.7871933,1.99255836,-0.09109993,0.66416007,0.99983174,-0.01739178,0.00069409,-0.0058088,0.00806953,0.00606867,-0.00498735,0,0,0,0,1,1
4,0.1501,15,0.05904709,-0.91807067,-0.38505924,2.60499954,0.22597989,0.52986145,-25.63577843,27.76965714,-109.1201401,-0.08518314,0.00567358,8.01280022,0.99755603,0.00074501,0.00000255,-0.06986789,-0.0003275,-0.00618753,-0.00272776,0,0,0,0,1,1
1,0.16,13,0.17981453,0.97515959,-0.08845817,0.34836698,1.20406437,0.71189016,-45.77608871,68.66413116,-91.14293671,0.88606161,3.41769695,-2.18688416,0.99933898,-0.00829647,-0.02966679,0.01930448,0.00007436,-0.00744413,-0.00436572,0,0,0,0,1,1
2,0.1601,15,0.98781043,0.08231875,0.0780874,-0.13170007,-0.10966033,-1.03541672,-10.23092651,37.4159584,-67.84565735,2.00511122,-0.09765411,0.66479504,0.99982965,-0.01750164,0.00075054,-0.00581542,0.00460643,0.00462153,-0.0058896,0,0,0,0,1,1
4,0.1601,16,0.05765535,-0.92020488,-0.38402623,2.53407741,0.24331,0.51239365,-25.63577843,27.76965714,-109.1201401,-0.0596494,0.00186052,8.01550198,0.99755448,0.0005204,0.00002018,-0.06989141,0.00108092,-0.00487403,-0.00123035,0,0,0,0,1,1
1,0.17,14,0.17477182,0.98131436,-0.0866972,0.29618677,2.33261204,1.08240259,-45.54224014,67.81642914,-91.02601624,0.88495451,3.43070984,-2.20929646,0.99933195,-0.00829478,-0.02977884,0.01950046,0.00556773,-0.00795422,0.00092927,0,0,0,0,1,1
2,0.1701,16,0.99060059,0.07524924,0.07930067,-0.00576592,-0.1486603,-0.87993574,-10.52323914,37.53288651,-67.75796509,2.01231146,-0.10151652,0.66563028,0.99982858,-0.01756467,0.00078375,-0.00582334,0.00223585,-0.00242676,-0.00331144,0,0,0,0,1,1
4,0.1701,17,0.05747941,-0.9219085,-0.38335907,2.4621911,0.14006321,0.40619963,-25.31423569,27.82811928,-109.500145,-0.07629881,-0.02583715,8.02118683,0.99755096,0.00064843,0.00027149,-0.06994072,0.0011685,-0.00386643,0.00007973,0,0,0,0,1,1
1,0.18,15,0.17136987,0.98628312,-0.08361141,-0.21341479,2.88251615,1.314044,-44.40222168,67.75796509,-90.64601135,0.87787199,3.44653916,-2.23632479,0.99932367,-0.0082427,-0.02991615,0.01973531,0.00978017,-0.01135152,0.00520186,0,0,0,0,1,1
2,0.1801,17,0.99266648,0.07415319,0.0781239,-0.0411335,-0.11535839,-0.80925196,-10.52323914,37.53288651,-67.75796509,2.01821113,-0.10418206,0.66800052,0.9998275,-0.01761629,0.00080634,-0.00584447,0.00044122,-0.0029873,-0.00140778,0,0,0,0,1,1
4,0.1801,18,0.05950144,-0.9250645,-0.38239276,2.23087168,0.38285971,0.3217856,-24.96346092,27.53580856,-108.4478226,-0.05375654,-0.02735638,8.02463531,0.99754894,0.00045126,0.00027097,-0.06997079,-0.00105446,-0.00163427,0.00274753,0,0,0,0,1,1
1,0.19,16,0.1704579,0.9849453,-0.08424095,-0.67416,2.5470674,1.21872675,-45.24992752,67.2610321,-91.55217743,0.86680996,3.46109486,-2.25955701,0.99931657,-0.00815477,-0.03004334,0.01993591,0.01079698,-0.01044185,0.00383146,0,0,0,0,1,1
2,0.1901,18,0.99261236,0.07734594,0.07738568,0.65680158,-0.12251177,-0.7819044,-11.31248188,38.11750793,-67.37796021,2.02596569,-0.10620008,0.66760671,0.99982625,-0.01768405,0.00082361,-0.0058414,0.00114935,0.00007218,-0.00138198,0,0,0,0,1,1
4,0.1901,19,0.05812686,-0.92940646,-0.37924051,1.94731784,0.50401366,0.27007315,-24.90499878,27.50657654,-108.6232071,-0.0339747,-0.02793927,8.02916813,0.9975462,0.00027869,0.00026397,-0.07001029,0.00046469,0.00255379,0.0054824,0,0,0,0,1,1
1,0.2,17,0.16911978,0.9833675,-0.09227274,-0.6269812,1.67884886,1.15188468,-45.74685669,68.25489807,-91.84449005,0.85778457,3.47414565,-2.27432084,0.99931115,-0.00808217,-0.03015768,0.02006307,0.01225181,-0.00213115,0.00276132,0,0,0,0,1,1
2,0.2001,19,0.99148452,0.08603167,0.07807104,0.88977748,-0.26554435,-0.64628071,-10.55247021,36.80210495,-67.64103699,2.03793311,-0.1093179,0.66144097,0.99982464,-0.01778858,0.00085116,-0.00578818,0.00564295,0.00739976,-0.00205072,0,0,0,0,1,1
4,0.2001,20,0.05654765,-0.93189293,-0.37899348,1.48800671,0.57245195,0.26887965,-25.08038521,27.4481144,-108.213974,-0.0187378,-0.02825203,8.03460217,0.99754292,0.00014584,0.0002574,-0.07005762,0.00216277,0.00343395,0.00759238,0,0,0,0,1,1
1,0.21,18,0.16851166,0.98305714,-0.09561466,-0.63339895,0.91448295,0.82978892,-45.65916443,67.17333984,-91.6690979,0.87304926,3.36256647,-2.28164983,0.99933791,-0.00819806,-0.02918142,0.02012417,0.01250899,0.00126168,0.00262668,0,0,0,0,1,1
2,0.2101,20,0.99113512,0.09401599,0.0761354,0.71185315,-0.1638564,-0.4858667,-10.20169544,37.18210983,-67.64103699,2.05271411,-0.11428425,0.65259534,0.99982274,-0.01791773,0.00089513,-0.00571188,0.00734724,0.01517462,-0.00221028,0,0,0,0,1,1
4,0.2101,21,0.0560764,-0.93349653,-0.37687361,1.065238,0.64026582,0.35477522,-25.08038521,27.4481144,-108.213974,-0.00766855,-0.02910465,8.04123211,0.99753892,0.00004895,0.00025805,-0.07011537,0.00266479,0.00577896,0.00824255,0,0,0,0,1,1
1,0.22,19,0.16741687,0.98040825,-0.09838566,-0.58898455,0.35919258,0.54958296,-45.65916443,67.17333984,-91.6690979,0.86668992,3.36837053,-2.28396153,0.99933648,-0.00814418,-0.02923298,0.02014306,0.01184538,0.00406215,0.00000987,0,0,0,0,1,1
2,0.2201,21,0.99057221,0.09004327,0.07601488,0.49832809,-0.09743977,-0.27305192,-10.11400127,38.35136032,-67.81642914,2.06279635,-0.11769271,0.64735693,0.99982148,-0.01800582,0.00092519,-0.00566679,0.00549952,0.01144,-0.00294944,0,0,0,0,1,1
4,0.2201,22,0.0546843,-0.93430328,-0.37559956,0.44659349,0.77784109,0.33646077,-25.13884735,27.36042023,-108.6816711,0.09559719,-0.08357793,8.04555798,0.99753559,-0.00088335,0.00066903,-0.07015361,0.00382397,0.00670053,0.0084238,0,0,0,0,1,1
1,0.23,20,0.16492467,0.97876734,-0.09926946,-0.03411833,0.38306126,0.52895296,-45.42531204,68.48874664,-90.76293182,0.86575001,3.37400103,-2.28721023,0.99933457,-0.00813779,-0.02928203,0.02017149,0.0142253,0.00512504,-0.00184011,0,0,0,0,1,1
2,0.2301,22,0.99059141,0.08992442,0.0800753,-0.2520009,-0.09542136,-0.03773203,-10.11400127,38.35136032,-67.81642914,2.06823659,-0.12147837,0.65601069,0.99982011,-0.01805355,0.00095659,-0.00574294,0.00900397,0.0094277,-0.00256382,0,0,0,0,1,1
4,0.2301,23,0.05499658,-0.93269068,-0.3740887,-0.27744946,0.88029462,0.35188279,-24.9342289,27.12657166,-109.2078323,0.09335615,-0.0835091,8.05518341,0.99752975,-0.00086386,0.00066973,-0.07023739,0.00268306,0.00620214,0.00638213,0,0,0,0,1,1
1,0.24,21,0.16407424,0.98149782,-0.10129624,0.30313972,0.66511822,0.41566604,-45.36685181,68.40105438,-91.28909302,0.86760104,3.37878203,-2.29376221,0.99933201,-0.00815643,-0.02932293,0.0202294,0.01550768,0.00691223,0.00092591,0,0,0,0,1,1
2,0.2401,23,0.99172521,0.08832663,0.07580193,-0.25095129,-0.04783685,0.15507036,-10.78631973,38.35136032,-67.08564758,2.07171011,-0.12179567,0.66674751,0.99981898,-0.01808396,0.00095749,-0.00583669,0.00433783,0.00979747,-0.00189049,0,0,0,0,1,1
4,0.2401,24,0.05646097,-0.93202865,-0.37366861,-0.55935228,0.91400063,0.40317973,-25.10961723,27.27272606,-109.0909042,0.08832426,-0.08378692,8.06548119,0.99752349,-0.00082029,0.00067516,-0.070327,0.00116581,0.00640791,0.0056974,0,0,0,0,1,1
1,0.25,22,0.16595908,0.98396343,-0.09852411,0.53248751,0.8936094,0.50880998,-45.77608871,68.4595108,-90.9967804,0.8713392,3.38470626,-2.30276608,0.99932861,-0.00819236,-0.02937329,0.02030924,0.01400451,0.00389148,0.00337898,0,0,0,0,1,1
2,0.2501,24,0.99055314,0.08385918,0.07628229,0.00104148,0.01281043,0.43270943,-10.0847702,37.53288651,-67.58258057,2.07056165,-0.12095629,0.67170644,0.99981886,-0.01807394,0.00094944,-0.00587982,0.0029501,0.00556169,-0.00321084,0,0,0,0,1,1
4,0.2501,25,0.05664228,-0.93262821,-0.37403157,-0.84123129,1.051512,0.4734104,-25.02192307,27.15580177,-108.8278275,0.08057699,-0.08419414,8.07748032,0.99751616,-0.00075317,0.00068338,-0.07043141,0.00102187,0.00641013,0.00639917,0,0,0,0,1,1
1,0.26,23,0.16510834,0.98323566,-0.09544629,0.42602333,0.78805107,0.57493383,-44.16837311,67.29026794,-90.79216766,0.87167853,3.23311138,-2.31123018,0.99936545,-0.00817111,-0.02805056,0.02037385,0.01415132,0.00083893,0.00227732,0,0,0,0,1,1
2,0.2601,25,0.98987019,0.08204383,0.0751045,-0.17574574,0.28349307,0.75240034,-10.96170712,38.20520401,-67.93334961,2.06485581,-0.12056898,0.67513448,0.99981964,-0.01802416,0.00094582,-0.00590962,0.00117783,0.00451981,-0.00407998,0,0,0,0,1,1
4,0.2601,26,0.05821587,-0.93091369,-0.37530667,-1.21197367,1.22378254,0.50896251,-25.1973114,27.56503868,-109.061676,0.06923719,-0.08427691,8.09142303,0.99750769,-0.00065459,0.00069099,-0.07055272,-0.00061426,0.004765,0.00539095,0,0,0,0,1,1
1,0.27,24,0.16480486,0.98424548,-0.09361453,0.05073887,0.78377366,0.45653489,-44.16837311,67.29026794,-90.79216766,0.87086916,3.23840165,-2.31861377,0.99936289,-0.00816678,-0.02809632,0.02043837,0.01259254,-0.00105191,0.00297951,0,0,0,0,1,1
2,0.2701,26,0.98927146,0.08120964,0.07806467,-0.22825032,0.22664674,1.01445973,-11.16632557,38.08827972,-67.72873688,2.05565667,-0.11950946,0.68156314,0.99982083,-0.0179439,0.00093604,-0.00596547,0.00353158,0.0026102,-0.00445011,0,0,0,0,1,1
4,0.2701,27,0.06032297,-0.92524636,-0.37797731,-1.68821192,1.29177356,0.559834,-25.1973114,27.56503868,-109.061676,0.02788968,-0.0083261,8.10267448,0.99750113,-0.00024791,0.00005528,-0.07065026,-0.00263875,0.00049915,0.00129159,0,0,0,0,1,1
1,0.28,25,0.16693276,0.98626786,-0.08999871,-0.2913554,1.00581598,0.29430151,-45.77608871,68.37181854,-91.02601624,0.8662653,3.24228477,-2.32793975,0.99936062,-0.0081296,-0.02813034,0.02051881,0.01076946,-0.00476417,0.00495314,0,0,0,0,1,1
2,0.2801,27,0.99099696,0.07855608,0.08329186,-0.67508304,0.28096196,1.08982635,-11.16632557,38.08827972,-67.72873688,2.04244876,-0.1206304,0.6924175,0.99982232,-0.01782881,0.00094482,-0.00606024,0.00685885,-0.00186636,-0.00238554,0,0,0,0,1,1
4,0.2801,28,0.06204602,-0.91923887,-0.38337025,-1.91592503,1.44601715,0.71749771,-24.96346092,27.76965714,-108.9739838,0.00971978,-0.00948242,8.11987209,0.99749053,-0.00009047,0.00007654,-0.07079995,-0.003582,-0.00613325,-0.00211382,0,0,0,0,1,1
1,0.29,26,0.16826858,0.98196638,-0.09278163,-0.28782988,0.81488454,0.09698089,-45.39608383,68.13796997,-91.37679291,0.86201251,3.2440207,-2.33555841,0.99935913,-0.00809469,-0.02814571,0.02058431,0.00899359,-0.0015624,0.00108228,0,0,0,0,1,1
2,0.2901,28,0.99068737,0.07752029,0.08309495,-1.12322581,0.04524751,1.02196944,-10.96170712,38.49751663,-67.81642914,2.02995086,-0.11957723,0.70936245,0.99982333,-0.01771984,0.00093367,-0.00620782,0.00626351,-0.00248951,-0.00276518,0,0,0,0,1,1
4,0.2901,29,0.06111237,-0.91431373,-0.38524768,-1.65000796,1.42863548,0.78805828,-25.28500366,27.56503868,-109.5293732,-0.00579956,-0.01135201,8.13702297,0.99747992,0.00004345,0.00010241,-0.07094923,-0.00290066,-0.0094445,-0.00600624,0,0,0,0,1,1
1,0.3,27,0.17094186,0.97732329,-0.0899245,0.14711104,0.40292403,0.09585009,-45.74685669,68.22566223,-90.85062408,0.86276954,3.24536395,-2.3396318,0.99935806,-0.00810253,-0.028157,0.02062011,0.0057768,-0.00400827,-0.0034151,0,0,0,0,1,1
2,0.3001,29,0.98846239,0.07020032,0.08232208,-0.87311321,-0.00763685,0.96621758,-10.96170712,38.35136032,-68.07950592,2.01508522,-0.11620597,0.72331363,0.99982488,-0.01759006,0.00090292,-0.00632891,0.00262869,-0.00847997,-0.00538208,0,0,0,0,1,1
4,0.3001,30,0.05890623,-0.91218054,-0.38663641,-1.40371978,1.53345501,0.73865706,-25.7234726,27.79888916,-109.3539887,-0.01880437,-0.01236327,8.154809,0.99746895,0.00015601,0.00011928,-0.07110404,-0.00081172,-0.01129409,-0.00757994,0,0,0,0,1,1
1,0.31,28,0.17653364,0.97932947,-0.0887784,0.51117796,-0.0445715,0.04205682,-45.45454407,68.4595108,-90.85062408,0.80280125,3.27076054,-2.33278227,0.99935704,-0.00758232,-0.02838973,0.02054706,0.00058048,-0.00509699,-0.00084046,0,0,0,0,1,1
2,0.3101,30,0.98721576,0.06175753,0.08268006,-0.33661583,-0.04628617,0.92502403,-10.75708866,38.11750793,-67.49488068,1.99711704,-0.11077977,0.73108572,0.99982721,-0.01743305,0.00085539,-0.00639576,-0.00054105,-0.01592123,-0.00697519,0,0,0,0,1,1
4,0.3101,31,0.05743409,-0.9127053,-0.38820621,-1.157529,1.56911659,0.67083871,-25.43115997,27.74042702,-109.6463013,-0.02936227,-0.01260651,8.1725235,0.99745798,0.00024774,0.00012799,-0.07125823,0.00071075,-0.01234535,-0.00658698,0,0,0,0,1,1
1,0.32,29,0.18206461,0.98173153,-0.08926399,0.19465555,-0.39559352,-0.19331276,-45.45454407,68.4595108,-90.85062408,0.80539417,3.26846242,-2.32928634,0.99935806,-0.00760366,-0.02836945,0.02051708,-0.00430611,-0.0040255,0.00225091,0,0,0,0,1,1
2,0.3201,31,0.98715186,0.06324936,0.08106651,-0.01486589,-0.18713835,0.91989607,-10.55247021,36.01286316,-67.93334961,1.98147404,-0.10358337,0.73604316,0.99982941,-0.0172962,0.00079272,-0.00643781,-0.00119872,-0.01357684,-0.00712908,0,0,0,0,1,1
4,0.3201,32,0.05563009,-0.91348392,-0.38469261,-0.71691883,1.76077986,0.64105499,-25.43115997,27.74042702,-109.6463013,-0.10197049,-0.0458308,8.19668198,0.99744248,0.000859,0.00046252,-0.07146816,0.00233687,-0.00837003,-0.00730449,0,0,0,0,1,1
1,0.33,30,0.18261142,0.98124701,-0.08957142,0.23563366,-0.81216836,-0.17432673,-45.71762466,68.28412628,-90.79216766,0.80912942,3.26596141,-2.32169914,0.99935973,-0.00763392,-0.02834747,0.02045169,-0.00495681,-0.00372316,0.00186001,0,0,0,0,1,1
2,0.3301,32,0.99303293,0.07272951,0.07913107,0.3960734,-0.29283655,0.84431088,-10.55247021,36.01286316,-67.93334961,1.97423208,-0.09881917,0.72213691,0.99983132,-0.01723265,0.00075365,-0.00631571,0.0007254,-0.00402922,-0.00103902,0,0,0,0,1,1
4,0.3301,33,0.05627408,-0.91590875,-0.37997264,-0.27623481,1.91779566,0.61075449,-25.86962891,27.09733963,-108.9447556,-0.1035745,-0.04416665,8.21686935,0.99742979,0.00087392,0.00044919,-0.07164387,0.0012985,-0.00216434,-0.00681394,0,0,0,0,1,1
1,0.34,31,0.18036301,0.98260796,-0.09041158,0.47116688,-1.13978481,0.071329,-45.80532074,68.5764389,-90.73370361,0.81581628,3.26560068,-2.31092143,0.9993614,-0.00768951,-0.02834386,0.02035934,-0.00257588,-0.00310346,0.00300157,0,0,0,0,1,1
2,0.3401,33,0.99525464,0.08005894,0.07923716,0.7896471,-0.31368563,0.83982283,-11.04940033,36.04209137,-67.29026794,1.97106755,-0.09527563,0.70659065,0.99983263,-0.01720475,0.00072524,-0.00617951,0.00387999,0.00258275,0.00150336,0,0,0,0,1,1
4,0.3401,34,0.05598143,-0.9187091,-0.37875989,-0.04671575,2.17780638,0.65051067,-25.28500366,27.62350082,-109.2078323,-0.10272015,-0.0418811,8.23947048,0.99741572,0.00086783,0.00042894,-0.07184062,0.00175365,0.00002491,-0.00470417,0,0,0,0,1,1
1,0.35,32,0.17647313,0.98151857,-0.09135479,0.1262619,-0.91820556,0.4107509,-45.68839645,66.88102722,-91.25986481,0.8187536,3.26882029,-2.30160379,0.99936199,-0.00771338,-0.02837204,0.02027899,0.0011983,-0.00215366,0.00153097,0,0,0,0,1,1
2,0.3501,34,0.99264276,0.08467003,0.07871246,0.18096144,-0.32383996,0.77635401,-11.0786314,38.29289627,-67.87489319,1.96981502,-0.09223557,0.70398641,0.99983299,-0.01719364,0.00069917,-0.00615633,0.00574688,0.00698472,-0.00093927,0,0,0,0,1,1
4,0.3501,35,0.05898605,-0.92266351,-0.37682685,-0.04405292,2.4185462,0.88011384,-25.40192986,27.68196487,-109.2370606,-0.10167379,-0.04080033,8.26516438,0.99739963,0.00085931,0.00041906,-0.07206428,-0.00104472,0.00329738,-0.00160773,0,0,0,0,1,1
1,0.36,33,0.1734947,0.97962916,-0.0920625,0.07891893,-0.06742428,0.54614699,-45.57146835,68.66413116,-91.14293671,0.82783818,3.23787546,-2.30332541,0.99936873,-0.00778766,-0.02810044,0.02029446,0.00385933,-0.00135339,-0.00064594,0,0,0,0,1,1
2,0.3601,35,0.98946381,0.08223145,0.07929254,-0.58886909,-0.34937856,0.69696355,-10.46477604,36.4805603,-67.93334961,1.96698201,-0.0890559,0.71208,0.99983305,-0.0171688,0.00067037,-0.00622645,0.00557731,0.00457358,-0.00415904,0,0,0,0,1,1
4,0.3601,36,0.05806658,-0.9230758,-0.37773231,-0.27148476,2.55532789,1.05490279,-24.46652985,26.95118332,-109.0909042,-0.10277739,-0.04081301,8.29292107,0.9973821,0.0008688,0.00042008,-0.07230587,-0.00008113,0.002617,-0.00093796,0,0,0,0,1,1
1,0.37,34,0.17562059,0.97442865,-0.09242924,0.16695806,0.00301845,0.65185636,-45.57146835,68.66413116,-91.14293671,0.82958448,3.24437451,-2.30292869,0.99936712,-0.00780392,-0.02815684,0.0202918,0.0007529,-0.00069944,-0.00552398,0,0,0,0,1,1
2,0.3701,36,0.98762155,0.07424265,0.08238826,-1.35690045,-0.01743975,0.8314966,-10.64016342,38.08827972,-68.40105438,1.95674801,-0.08949633,0.71843594,0.99983424,-0.01707957,0.00067382,-0.00628191,0.00504001,-0.00383346,-0.00607067,0,0,0,0,1,1
4,0.3701,37,0.06131619,-0.92570573,-0.37531671,-0.28930524,2.74571967,1.07504261,-25.10961723,27.30195808,-109.3832169,-0.0303288,0.00050893,8.31737041,0.99736702,0.00026429,0.00001476,-0.072519,-0.00305412,0.00554702,0.00076642,0,0,0,0,1,1
1,0.38,35,0.17671518,0.97750175,-0.09292625,0.75594521,-0.0077929,1.01025653,-45.27915955,68.19643402,-90.09061432,0.83720261,3.2544353,-2.30281401,0.99936414,-0.00787208,-0.02824324,0.02029327,0.00019005,-0.00054624,-0.00230145,0,0,0,0,1,1
2,0.3801,37,0.99000347,0.07595481,0.08155727,-1.39257491,-0.08718537,0.88349187,-10.64016342,38.08827972,-68.40105438,1.94668531,-0.08779441,0.73354149,0.99983484,-0.01699176,0.00065728,-0.0064134,0.00482597,-0.00174504,-0.0037065,0,0,0,0,1,1
4,0.3801,38,0.06070253,-0.92605948,-0.37604129,-0.46738672,2.86734724,0.98907703,-25.10961723,27.30195808,-109.3832169,-0.03320934,0.00225634,8.34787178,0.99734765,0.00029047,0.00000146,-0.07278449,-0.00184706,0.00408288,0.00133026,0,0,0,0,1,1
1,0.39,36,0.17975475,0.9812395,-0.09279839,0.55884051,-0.07976118,1.1993897,-45.57146835,68.48874664,-90.79216766,0.84302479,3.26631069,-2.30156755,0.99936098,-0.00792461,-0.02834586,0.02028453,-0.00217826,-0.00109607,0.00176776,0,0,0,0,1,1
2,0.3901,38,0.9908365,0.07521085,0.0776015,-0.7301296,-0.07789877,0.96384841,-11.10786343,38.14673996,-67.87489319,1.93712878,-0.08317264,0.74315888,0.99983585,-0.01690817,0.00061607,-0.00649658,0.00093293,-0.00050551,-0.00327432,0,0,0,0,1,1
4,0.3901,39,0.06193548,-0.92675096,-0.37404653,-0.87513453,2.79826045,0.86438876,-25.10961723,27.56503868,-109.2078323,-0.04023181,0.00489756,8.37750435,0.99732876,0.00035327,-0.00001698,-0.0730424,-0.00304446,0.00628869,0.00128573,0,0,0,0,1,1
1,0.4,37,0.18194239,0.98051727,-0.09346522,0.08123524,-0.57193875,1.27142727,-45.54224014,68.75182343,-90.87985992,0.84503949,3.27842522,-2.29480529,0.99935895,-0.0079426,-0.02845162,0.02022677,-0.00421481,-0.00042736,0.00138446,0,0,0,0,1,1
2,0.4001,39,0.99180269,0.0740001,0.07630575,-0.0680164,-0.22374624,1.04238057,-11.34171295,37.29903412,-68.31335449,1.92802203,-0.07576762,0.74577236,0.9998371,-0.01682831,0.0005516,-0.00651824,-0.00073592,-0.0008554,-0.00248968,0,0,0,0,1,1
4,0.4001,40,0.06236082,-0.92590332,-0.37404802,-1.05342102,2.55663872,0.7034632,-25.08038521,27.56503868,-109.3539887,-0.04920268,0.00811302,8.40439987,0.99731165,0.00043341,-0.00003915,-0.07327649,-0.00346141,0.00611323,0.00052849,0,0,0,0,1,1
1,0.41,38,0.18291415,0.97808212,-0.09434392,-0.08603416,-1.44260156,1.13692868,-45.48377609,68.07950592,-90.82139587,0.85446256,3.35020113,-2.27697039,0.99934322,-0.00803265,-0.02907717,0.02007788,-0.00500612,0.00057738,-0.00080957,0,0,0,0,1,1
2,0.4101,40,0.98961478,0.07868039,0.07505298,0.16539992,-0.28171879,1.23143435,-10.58170128,36.53902435,-67.58258057,1.92106545,-0.06838682,0.74097115,0.99983835,-0.01676717,0.00048829,-0.00647524,0.00054912,0.00403088,-0.00457685,0,0,0,0,1,1
4,0.4101,41,0.06308115,-0.92412978,-0.37532142,-0.85833925,2.40081024,0.73684716,-24.52499199,28.03273773,-109.2955246,-0.05629706,0.01042922,8.42986488,0.99729532,0.00049664,-0.00005466,-0.07349814,-0.00420371,0.00440157,-0.00058468,0,0,0,0,1,1
1,0.42,39,0.18577072,0.97817713,-0.09263147,-0.12693177,-2.41608953,1.04959023,-45.48377609,68.07950592,-90.82139587,0.85767967,3.35834599,-2.25190115,0.9993453,-0.00805573,-0.0291494,0.01986056,-0.00688902,-0.00127612,-0.00044877,0,0,0,0,1,1
2,0.4201,41,0.9914397,0.07868858,0.07377306,0.25495157,-0.43954954,1.31599712,-10.58170128,36.53902435,-67.58258057,1.9147253,-0.05887375,0.73261452,0.99983984,-0.01671129,0.00040687,-0.00640091,-0.00062103,0.00470992,-0.0028805,0,0,0,0,1,1
4,0.4201,42,0.06416579,-0.92361915,-0.37707865,-0.85857058,2.27981877,0.70027149,-24.90499878,27.88658333,-109.4124527,-0.01147851,0.08431698,8.44855213,0.99728316,0.0001541,-0.00072643,-0.07366078,-0.00492113,0.00248005,-0.0003265,0,0,0,0,1,1
1,0.43,40,0.18546768,0.98121786,-0.09131663,0.17095621,-3.26396084,0.92969906,-45.57146835,68.72259521,-90.73370361,0.86534399,3.36449432,-2.21891069,0.99934888,-0.0081152,-0.02920404,0.01957518,-0.00611071,-0.00293316,0.00242689,0,0,0,0,1,1
2,0.4301,42,0.99162507,0.07398473,0.07745818,-0.20892838,-0.23218714,1.49821627,-10.90324497,37.73750305,-67.67027283,1.901577,-0.05056495,0.73421627,0.99984163,-0.0165961,0.00033487,-0.00641364,0.00074452,-0.00094969,-0.00257766,0,0,0,0,1,1
4,0.4301,43,0.06563687,-0.92616773,-0.37635371,-0.73356682,2.08893442,0.76756322,-24.90499878,27.88658333,-109.4124527,-0.01746632,0.08514851,8.47118473,0.9972685,0.00020689,-0.00072977,-0.07385778,-0.00530796,0.00354413,0.0018395,0,0,0,0,1,1
1,0.44,41,0.18242882,0.97996151,-0.08965111,0.20909494,-3.43726039,0.90574664,-45.16223145,68.54721069,-91.2306366,0.87369299,3.37023377,-2.18428874,0.99935269,-0.00818014,-0.02925513,0.01927572,-0.00316452,-0.00464493,0.00069085,0,0,0,0,1,1
2,0.4401,43,0.98925829,0.07117746,0.08215247,-0.63845563,-0.21025933,1.46814942,-10.61093235,37.32826614,-67.84565735,1.88569129,-0.0446266,0.74017018,0.99984366,-0.01645718,0.00028309,-0.00646469,0.00406658,-0.00527292,-0.00464116,0,0,0,0,1,1
4,0.4401,44,0.06373793,-0.92735612,-0.3781037,-0.80398673,1.98485923,0.76567042,-25.37269783,27.82811928,-109.558609,-0.02421654,0.08560526,8.4928894,0.99725449,0.00026607,-0.00072935,-0.07404672,-0.00329771,0.00248725,0.00348861,0,0,0,0,1,1
1,0.45,42,0.18163872,0.9804762,-0.09110267,0.02276163,-2.79637623,0.75771481,-45.39608383,68.07950592,-90.44139099,0.87903327,3.37510562,-2.15591192,0.99935573,-0.00822025,-0.02929876,0.01902991,-0.00221137,-0.00335115,0.00122747,0,0,0,0,1,1
2,0.4501,44,0.99191487,0.06488405,0.08046801,-0.51377648,-0.19154531,1.34468317,-10.52323914,38.00058365,-67.93334961,1.86834896,-0.03694632,0.74416006,0.99984592,-0.01630544,0.00021649,-0.00649837,-0.00034489,-0.00989038,-0.00243922,0,0,0,0,1,1
4,0.4501,45,0.06222041,-0.92737156,-0.37719303,-0.7500152,1.8632766,0.81626934,-24.37883568,27.68196487,-109.2078323,-0.03047792,0.08513504,8.51362991,0.99724102,0.00032038,-0.00072115,-0.07422726,-0.00180504,0.00345451,0.00306873,0,0,0,0,1,1
1,0.46,43,0.18054371,0.97774661,-0.09630001,0.10106116,-1.73515618,0.36363912,-45.33761978,67.75796509,-90.9967804,0.89776713,3.39924407,-2.13792968,0.99935108,-0.00838291,-0.02950747,0.01887941,-0.00124966,0.00191366,-0.00117963,0,0,0,0,1,1
2,0.4601,45,0.99270427,0.06242062,0.0812755,-0.37148729,-0.2239565,1.18546963,-10.49400711,37.73750305,-67.69950104,1.85114706,-0.02907148,0.74966365,0.99984813,-0.01615491,0.00014798,-0.00654525,-0.00063698,-0.01215104,-0.0017003,0,0,0,0,1,1
4,0.4601,46,0.05893575,-0.92395282,-0.37549466,-0.5569995,1.76052427,0.71135998,-25.1973114,27.47734642,-109.5293732,-0.03489758,0.08524357,8.53291225,0.99722856,0.00035904,-0.00071917,-0.07439509,0.00124471,0.00381499,-0.0009252,0,0,0,0,1,1
1,0.47,44,0.18449394,0.97764224,-0.0971923,0.57246667,-0.5650019,-0.13320699,-45.45454407,68.5764389,-91.05524445,0.90440732,3.39738417,-2.13315749,0.99935192,-0.0084393,-0.02949051,0.01883939,-0.00489289,0.00251543,-0.00071192,0,0,0,0,1,1
2,0.4701,46,0.99370718,0.0698747,0.08169121,-0.0141346,-0.20775199,1.07694316,-10.49400711,37.73750305,-67.69950104,1.83915687,-0.02392064,0.75078988,0.9998498,-0.01605,0.00010357,-0.00655434,0.00299594,-0.0053854,-0.00034239,0,0,0,0,1,1
4,0.4701,47,0.0589954,-0.92226142,-0.3753145,-0.50428718,1.65695608,0.6752997,-25.25577354,27.74042702,-109.1201401,-0.02008139,0.05972351,8.55262566,0.99721593,0.00021362,-0.00050667,-0.07456652,0.00098174,0.00333433,-0.00255224,0,0,0,0,1,1
1,0.48,45,0.18656003,0.97768962,-0.09984961,0.76622534,-0.18020113,-0.43191338,-45.45454407,68.5764389,-91.05524445,0.91222018,3.39292598,-2.13271427,0.99935263,-0.0085066,-0.02945038,0.01883724,-0.00697443,0.00503826,-0.0002044,0,0,0,0,1,1
2,0.4801,47,0.99273515,0.07493354,0.07916656,0.2354016,-0.44949427,0.98401725,-9.90938282,37.679039,-67.67027283,1.83271837,-0.01710656,0.74915767,0.99985075,-0.01599343,0.00004471,-0.00653914,0.00316985,0.00040523,-0.00131814,0,0,0,0,1,1
4,0.4801,48,0.05990002,-0.92012882,-0.376286,-0.45004752,1.63904059,0.76221603,-25.43115997,27.53580856,-108.9155197,-0.02349642,0.05889843,8.57091427,0.99720401,0.00024288,-0.00049723,-0.07472569,-0.00035455,0.00144705,-0.00410125,0,0,0,0,1,1
1,0.49,46,0.19105783,0.98060095,-0.10148484,0.94743168,-0.31703413,-0.50750649,-45.65916443,68.0210495,-90.93832397,0.92203325,3.38758731,-2.13121104,0.99935353,-0.00859094,-0.02940233,0.01882631,-0.01116345,0.00626925,0.00334863,0,0,0,0,1,1
2,0.4901,48,0.99115145,0.07796046,0.07776448,-0.05075005,-0.39515603,0.98774201,-11.19555664,38.11750793,-68.07950592,1.82762098,-0.01093189,0.75124431,0.99985141,-0.0159486,-0.00000917,-0.00655648,0.00350994,0.00383451,-0.0028893,0,0,0,0,1,1
1,0.5,47,0.19312386,0.97809952,-0.098479,0.67963898,-0.47673717,-0.28646293,-45.6299324,68.72259521,-90.82139587,0.92954838,3.38428831,-2.12759042,0.99935436,-0.00865502,-0.02937259,0.01879644,-0.0136208,0.00332754,0.00088171,0,0,0,0,1,1
2,0.5001,49,0.990183,0.07750909,0.07976189,-0.46241134,-0.42547899,0.97434455,-10.69862556,38.26366425,-67.9041214,1.82155871,-0.00549863,0.7587834,0.99985176,-0.01589539,-0.00005728,-0.00662151,0.00529553,0.00264048,-0.00369499,0,0,0,0,1,1
4,0.5001,49,0.05502147,-0.92085373,-0.37694117,-0.23472683,1.53369761,0.98767966,-25.22654152,27.68196487,-109.3539887,-0.0244552,0.05310749,8.60714626,0.99718034,0.00024759,-0.00044613,-0.07504097,0.00448316,0.00114671,-0.00347021,0,0,0,0,1,1
1,0.51,48,0.19111894,0.97823024,-0.09193857,0.6899392,-0.11216651,0.24579807,-45.01607513,68.98567963,-90.52908325,0.86662436,3.51076937,-2.12510633,0.99932599,-0.00812583,-0.03048612,0.01876637,-0.01113632,-0.00302521,0.0002759,0,0,0,0,1,1
2,0.5101,50,0.98839664,0.07392209,0.07880309,-0.56949198,-0.4604688,1.04499662,-10.52323914,38.26366425,-67.84565735,1.81335497,0.00185648,0.76813519,0.99985242,-0.01582338,-0.00012227,-0.0067021,0.00315885,-0.00002215,-0.00572247,0,0,0,0,1,1
4,0.5101,50,0.05551853,-0.92382824,-0.37615341,-0.16533215,1.43071485,0.88217086,-24.87576675,27.76965714,-109.6755295,-0.02511919,0.0503823,8.62380028,0.99716944,0.00025164,-0.00042194,-0.07518589,0.00407559,0.00300916,-0.0009922,0,0,0,0,1,1
1,0.52,49,0.1894175,0.97728664,-0.08704892,0.48401016,0.44117883,0.59635085,-45.07453918,68.37181854,-90.49985504,0.87068063,3.51713467,-2.12949347,0.99932325,-0.00816339,-0.03054065,0.0188061,-0.00789468,-0.00699884,-0.00116383,0,0,0,0,1,1
2,0.5201,51,0.98874724,0.06927062,0.07872923,-0.49696001,-0.29138052,1.1685499,-10.52323914,38.26366425,-67.84565735,1.8010906,0.00940352,0.77653509,0.99985355,-0.01571591,-0.00018855,-0.00677437,0.00115407,-0.00398181,-0.00559244,0,0,0,0,1,1
4,0.5201,51,0.05423404,-0.92412186,-0.37693721,-0.30951017,1.41478407,0.67262471,-24.90499878,27.47734642,-109.9093857,0.0245051,-0.01208973,8.64284706,0.99715698,-0.00022119,0.00008909,-0.07535158,0.00509504,0.00219653,-0.00049969,0,0,0,0,1,1
1,0.53,50,0.18832429,0.97995937,-0.08574302,0.35958347,0.3702223,0.59468848,-45.07453918,68.37181854,-90.49985504,0.87365043,3.52341199,-2.13302851,0.99932081,-0.00819124,-0.03059466,0.01883811,-0.00638945,-0.00856826,0.00125159,0,0,0,0,1,1
2,0.5301,52,0.99086142,0.06543158,0.07678191,0.05816004,-0.35080767,1.28420877,-10.11400127,37.76673508,-67.49488068,1.78738296,0.01994972,0.7776944,0.99985534,-0.01559568,-0.00027992,-0.00678307,-0.00231504,-0.0063415,-0.00384273,0,0,0,0,1,1
4,0.5301,52,0.05490828,-0.92189777,-0.37585106,-0.45539942,1.39982009,0.34139383,-25.43115997,26.60040855,-110.1139984,0.02079749,-0.00994213,8.65733814,0.9971475,-0.00018752,0.00007282,-0.07547767,0.00348674,0.00173719,-0.00292607,0,0,0,0,1,1
1,0.54,51,0.18419141,0.98051184,-0.08951375,0.07074223,-0.71020854,0.2631264,-44.81145859,67.87489319,-90.32446289,0.87567073,3.52535415,-2.12582755,0.99932134,-0.00820725,-0.03061178,0.01877597,-0.00211109,-0.004892,0.00160375,0,0,0,0,1,1
2,0.5401,53,0.99196184,0.06146553,0.07986882,0.46924689,-0.38755733,1.20943451,-10.0847702,37.50365448,-68.28412628,1.77246249,0.02960719,0.77206033,0.99985772,-0.01546494,-0.00036254,-0.00673264,-0.00122625,-0.01100162,-0.00265257,0,0,0,0,1,1
4,0.5401,53,0.05709916,-0.92068154,-0.3760379,-0.60020047,1.3323319,0.07892204,-25.43115997,26.60040855,-110.1139984,0.01555601,-0.00562116,8.67029572,0.99713898,-0.00013907,0.00003865,-0.07559042,0.00129909,0.00118488,-0.00384987,0,0,0,0,1,1
1,0.55,52,0.1829152,0.97998959,-0.08770826,0.22899896,-1.73326194,-0.104316,-45.27915955,67.17333984,-90.5875473,0.88106161,3.52266383,-2.10904908,0.99932432,-0.00824935,-0.03058864,0.01863092,-0.00094937,-0.00672315,0.00078789,0,0,0,0,1,1
2,0.5501,54,0.99313867,0.06499206,0.08101084,0.36184078,-0.2123253,1.12526929,-10.69862556,37.62057877,-67.84565735,1.75922287,0.03559526,0.76591748,0.99985987,-0.01534909,-0.00041319,-0.00667828,0.00135025,-0.00809633,-0.00122941,0,0,0,0,1,1
4,0.5501,54,0.05875408,-0.919312,-0.37428755,-0.67390871,1.28202355,-0.14818181,-25.63577843,27.27272606,-109.3832169,0.0095032,0.00061207,8.68197155,0.99713135,-0.00008229,-0.0000116,-0.07569201,-0.00036911,0.00238056,-0.00568063,0,0,0,0,1,1
1,0.56,53,0.17695878,0.97996169,-0.09343596,0.18848339,-1.24696994,-0.36292142,-45.92224503,68.48874664,-91.08448029,0.89151919,3.43906713,-2.1028738,0.99934697,-0.00832569,-0.02985835,0.0185746,0.0046023,-0.0011335,0.00047312,0,0,0,0,1,1
2,0.5601,55,0.99258912,0.06814694,0.07881871,0.21788849,-0.43359369,1.05430353,-9.76322746,37.97135162,-67.69950104,1.74954927,0.04372673,0.76349318,0.99986124,-0.01526422,-0.00048325,-0.00665608,0.00094917,-0.00410392,-0.0018405,0,0,0,0,1,1
4,0.5601,55,0.06002642,-0.91887182,-0.37531906,-0.69296205,1.24817121,-0.25308535,-24.78807259,27.41888237,-109.4416809,0.00318638,0.00768934,8.6929493,0.99712408,-0.00002264,-0.00006902,-0.07578754,-0.00151977,0.00137269,-0.00562164,0,0,0,0,1,1
1,0.57,54,0.17568143,0.97908604,-0.10309453,-0.35352316,0.64092159,-0.56624591,-45.45454407,68.54721069,-91.08448029,0.88679016,3.43403864,-2.10933232,0.99934751,-0.00828534,-0.02981479,0.01862937,0.00473983,0.00850517,0.00015621,0,0,0,0,1,1
2,0.5701,56,0.99166274,0.06614507,0.07794207,-0.05111456,-0.32395664,0.88371956,-9.76322746,37.97135162,-67.69950104,1.73976612,0.05111973,0.76582068,0.99986237,-0.01517841,-0.0005475,-0.00667545,-0.00047702,-0.00535774,-0.00293492,0,0,0,0,1,1
4,0.5701,56,0.0597663,-0.91883725,-0.3777993,-0.53524292,1.24915826,-0.33923224,-25.66501045,27.62350082,-109.4416809,-0.01820173,0.04603079,8.70176029,0.99711812,0.00018886,-0.00038849,-0.07586426,-0.00093948,-0.0007678,-0.00472915,0,0,0,0,1,1
1,0.58,55,0.18382341,0.97304583,-0.10781014,-0.36930719,2.04854822,-0.92958695,-45.45454407,68.54721069,-91.08448029,0.87931329,3.42673731,-2.13005376,0.99934661,-0.00822435,-0.02975085,0.01880768,-0.00413344,0.01382439,-0.00446611,0,0,0,0,1,1
2,0.5801,57,0.99121928,0.06335387,0.07644501,-0.14085072,-0.25231141,0.79814339,-10.49400711,37.29903412,-68.05027771,1.72974491,0.05834411,0.76532316,0.9998638,-0.01509056,-0.00060989,-0.00667021,-0.00287507,-0.0070222,-0.00364096,0,0,0,0,1,1
4,0.5801,57,0.05817879,-0.92082357,-0.37870225,-0.11139902,1.24994969,-0.33717665,-25.37269783,26.3957901,-109.4124527,-0.01869982,0.05389776,8.71209145,0.9971112,0.00019844,-0.00045659,-0.07595416,0.00130882,-0.00059348,-0.00264541,0,0,0,0,1,1
1,0.59,56,0.18984075,0.97470933,-0.10454483,0.45545319,2.0235436,-1.07514727,-45.48377609,68.37181854,-91.2306366,0.87999272,3.41797805,-2.15166569,0.99934524,-0.00823447,-0.0296728,0.01899579,-0.01008344,0.0104773,-0.00236148,0,0,0,0,1,1
2,0.5901,58,0.99166572,0.06842241,0.07700747,0.14574145,-0.22158955,0.84784883,-10.26015759,38.14673996,-68.10874176,1.7218684,0.06415575,0.76313108,0.99986488,-0.0150215,-0.00065985,-0.00665036,-0.00008697,-0.0025668,-0.00292534,0,0,0,0,1,1
1,0.6,57,0.1947038,0.97679627,-0.09745929,0.71476972,1.26184964,-0.89750952,-45.83454895,67.64103699,-90.67523956,0.88463664,3.4102633,-2.16587758,0.99934465,-0.00827739,-0.02960372,0.01912045,-0.01487245,0.00318238,-0.00028125,0,0,0,0,1,1
2,0.6001,59,0.99238336,0.07142814,0.07189797,0.66501874,-0.22822663,0.92956084,-9.58784008,37.03595352,-68.16719818,1.71665728,0.07247235,0.75627077,0.99986589,-0.01497559,-0.00073122,-0.00658944,-0.00327582,0.00248833,-0.00254343,0,0,0,0,1,1
1,0.61,58,0.19750014,0.9791525,-0.09541196,0.61206126,0.77388573,-0.63787925,-45.86378098,68.37181854,-90.61677551,0.89526832,3.5873127,-2.16222405,0.99929708,-0.00839794,-0.03114622,0.01910251,-0.01669865,0.00084723,0.00226904,0,0,0,0,1,1
2,0.6101,60,0.99445248,0.06871566,0.07251494,0.73646426,-0.12396,0.86010909,-10.37708282,36.86056519,-68.37181854,1.71063685,0.07922366,0.74306029,0.9998675,-0.01492276,-0.00078806,-0.00647333,-0.00398587,-0.00013148,-0.00055165,0,0,0,0,1,1
1,0.62,59,0.19300221,0.97607309,-0.09468856,0.29346615,0.38770178,-0.42476833,-45.13300323,66.99795532,-90.82139587,0.89739251,3.58346081,-2.16683054,0.9992972,-0.00841709,-0.03111194,0.01914302,-0.01030267,0.00023753,-0.00123711,0,0,0,0,1,1
2,0.6201,61,0.9911015,0.06142618,0.07865876,0.00221109,-0.04452845,0.6941843,-10.37708282,36.86056519,-68.37181854,1.69996834,0.08254702,0.73606509,0.99986923,-0.01482954,-0.00081555,-0.00641194,-0.00128235,-0.00921579,-0.00365809,0,0,0,0,1,1
1,0.63,60,0.19038893,0.97657937,-0.09572443,0.27967682,0.02255615,-0.33428484,-45.13300323,66.99795532,-90.82139587,0.90004218,3.58016109,-2.16771507,0.9992978,-0.0084399,-0.03108266,0.01915124,-0.00770263,0.00120047,-0.00097363,0,0,0,0,1,1
2,0.6301,62,0.99128485,0.05641989,0.08209665,-0.03431454,0.01126294,0.52046001,-10.49400711,38.08827972,-68.37181854,1.68669152,0.08486468,0.73535419,0.9998709,-0.01471357,-0.00083494,-0.00640553,-0.00036654,-0.01501608,-0.00339293,0,0,0,0,1,1
4,0.6301,58,0.05327482,-0.92325276,-0.3743341,0.23017396,0.71077359,0.00411218,-25.22654152,27.38965225,-109.3247604,0.03795953,0.00593768,8.74659157,0.99708843,-0.00032634,-0.00007693,-0.07625427,0.00543659,0.00339312,-0.00234503,0,0,0,0,1,1
1,0.64,61,0.18893053,0.97807914,-0.09746835,0.38462776,0.16268544,-0.20884602,-46.00993729,67.61180878,-91.40602112,0.90351599,3.57824278,-2.16999292,0.99929756,-0.00847049,-0.03106518,0.01917192,-0.00609648,0.00274816,0.00047151,0,0,0,0,1,1
2,0.6401,63,0.99169588,0.05448831,0.08006414,-0.05308481,-0.03690774,0.36279684,-10.78631973,37.64981079,-68.34259033,1.67460203,0.08855046,0.73568135,0.99987245,-0.01460787,-0.00086647,-0.00640801,-0.00301838,-0.01562326,-0.00326026,0,0,0,0,1,1
4,0.6401,59,0.05303062,-0.92512172,-0.37481633,0.10751756,0.8311196,0.09223888,-25.57731628,27.71119499,-109.558609,0.0395084,0.00823273,8.75455475,0.99708313,-0.00033829,-0.00009795,-0.07632355,0.00583409,0.00362902,-0.00045049,0,0,0,0,1,1
1,0.65,62,0.1832784,0.97649902,-0.09491028,-0.03118769,0.54023606,-0.34751058,-46.06840134,68.83952332,-90.79216766,0.90216917,3.57530117,-2.17563319,0.99929762,-0.0084598,-0.03103934,0.01922056,-0.00074175,0.00031858,-0.00198306,0,0,0,0,1,1
2,0.6501,64,0.99283576,0.04904155,0.07967179,0.58870089,-0.03268871,-0.11596516,-10.93247604,37.97135162,-68.16719818,1.66484642,0.09178117,0.72947973,0.999874,-0.01452261,-0.00089332,-0.00635356,-0.00581309,-0.0201617,-0.00240851,0,0,0,0,1,1
4,0.6501,60,0.05259849,-0.92432672,-0.37548158,0.21459045,0.88259864,0.1804457,-25.57731628,27.71119499,-109.558609,0.04216461,0.00990636,8.76326466,0.99707729,-0.00036028,-0.00011431,-0.07639933,0.00627338,0.0026705,-0.00095816,0,0,0,0,1,1
1,0.66,63,0.18309535,0.97567952,-0.10068259,0.07066383,1.1325202,-0.68979454,-45.77608871,68.5764389,-91.34755707,0.99329448,3.59788203,-2.16633654,0.99928594,-0.00925561,-0.03122171,0.01916575,-0.00055954,0.00576393,-0.00234618,0,0,0,0,1,1
2,0.6601,65,0.99185967,0.05244343,0.07748508,0.90921897,-0.18552567,-0.36590669,-10.55247021,37.97135162,-68.13796997,1.66050363,0.09585796,0.72248191,0.99987489,-0.01448455,-0.00092777,-0.00629201,-0.00611364,-0.01601585,-0.00342996,0,0,0,0,1,1
4,0.6601,61,0.05375387,-0.92480183,-0.37596765,0.21579961,1.00303757,0.28655547,-25.54808426,27.38965225,-109.2662964,0.04492831,0.01105498,8.77348709,0.99707043,-0.00038355,-0.00012618,-0.07648827,0.00517988,0.00236195,-0.00026729,0,0,0,0,1,1
1,0.67,64,0.18443197,0.97525209,-0.10425951,-0.01279139,0.81908965,-1.06393754,-45.27915955,68.66413116,-90.9967804,0.9915067,3.58809519,-2.17545915,0.99928713,-0.0092409,-0.03113593,0.01924413,-0.00167798,0.00818977,-0.0022881,0,0,0,0,1,1
2,0.6701,66,0.9927572,0.06800544,0.07578428,1.10571754,-0.2903792,-0.38673782,-10.55247021,37.59134674,-68.13796997,1.66563261,0.09754332,0.71177959,0.99987483,-0.0145293,-0.0009414,-0.00619838,-0.00085424,-0.00132686,-0.00199966,0,0,0,0,1,1
4,0.6701,62,0.05442759,-0.92330021,-0.37512299,0.09288566,1.24465072,0.37649077,-25.51885414,27.91581345,-109.4416809,0.07442323,-0.03908766,8.78884029,0.99706,-0.00067369,0.00029034,-0.0766221,0.00420063,0.00240707,-0.00193429,0,0,0,0,1,1
1,0.68,65,0.18783492,0.9742505,-0.10644031,0.19493298,-0.0473436,-1.02814162,-45.27915955,68.66413116,-90.9967804,0.99335104,3.57782102,-2.17623329,0.99928981,-0.00925552,-0.03104596,0.01925066,-0.00533619,0.01043188,-0.00270395,0,0,0,0,1,1
2,0.6801,67,0.99368107,0.07588373,0.07220519,1.1400702,-0.47581378,-0.59902376,-10.61093235,37.47442245,-67.93334961,1.67840445,0.09977677,0.70057017,0.99987382,-0.01464071,-0.00096015,-0.00610018,-0.00065989,0.00714243,-0.00104941,0,0,0,0,1,1
4,0.6801,63,0.05509022,-0.92129248,-0.37585187,0.14645232,1.31363106,0.42993182,-25.60654831,28.1204319,-109.003212,0.07668059,-0.03809957,8.80251694,0.99705088,-0.00069271,0.00028015,-0.07674111,0.00279409,0.00057217,-0.00347307,0,0,0,0,1,1
1,0.69,66,0.19014476,0.9751299,-0.1040524,0.16400066,-0.51703429,-0.837578,-45.13300323,67.72873688,-90.61677551,0.9957813,3.56898236,-2.1721282,0.99929267,-0.00927416,-0.03096881,0.0192149,-0.00771517,0.00793296,-0.00175448,0,0,0,0,1,1
2,0.6901,68,0.99396729,0.06802984,0.07359742,0.65630811,-0.43353021,-0.7506088,-10.66939449,37.62057877,-68.13796997,1.6873337,0.1021082,0.69444799,0.99987292,-0.01471855,-0.00098018,-0.00604638,-0.00284643,-0.00071365,-0.00098144,0,0,0,0,1,1
4,0.6901,64,0.05488864,-0.91962439,-0.37833345,0.16736408,1.27722132,0.65548682,-25.48962212,26.86348915,-109.9093857,0.0791694,-0.03933517,8.81669712,0.99704134,-0.00071522,0.00028914,-0.0768645,0.00295486,-0.00239835,-0.0040853,0,0,0,0,1,1
1,0.7,67,0.19348699,0.97411156,-0.10526366,-0.25491619,-0.13999468,-0.42269185,-45.24992752,68.75182343,-90.70446777,0.99346894,3.56463194,-2.17084408,0.99929422,-0.00925294,-0.03093136,0.01920277,-0.01124651,0.00923481,-0.00226712,0,0,0,0,1,1
2,0.7001,69,0.98994303,0.0587105,0.08074282,-0.52492094,-0.12516131,-0.94397295,-10.58170128,37.21134186,-67.67027283,1.68882573,0.09894618,0.70017517,0.99987251,-0.01473169,-0.0009534,-0.00609675,-0.00015875,-0.01230268,-0.00475009,0,0,0,0,1,1
4,0.7001,65,0.05841196,-0.92092109,-0.38033634,0.13259315,1.36336052,0.708758,-25.31423569,27.53580856,-109.4124527,0.08135872,-0.04073868,8.83189487,0.99703103,-0.00073525,0.00029979,-0.07699674,-0.00047361,-0.00379325,-0.00192183,0,0,0,0,1,1
1,0.71,68,0.19111712,0.97430277,-0.10224062,0.0191445,0.64476788,0.01921145,-45.893013,68.95644379,-90.76293182,1.04141414,3.64707589,-2.16882086,0.99926794,-0.0096839,-0.03164244,0.01920417,-0.00856872,0.00603426,-0.00258241,0,0,0,0,1,1
2,0.7101,70,0.98970824,0.06220582,0.08031315,-0.66739231,-0.05715039,-0.83677059,-10.58170128,37.21134186,-67.67027283,1.6909225,0.09482913,0.70617551,0.99987191,-0.01475016,-0.00091837,-0.00614962,0.00094884,-0.00900081,-0.00486675,0,0,0,0,1,1
4,0.7101,66,0.05555362,-0.92057675,-0.3793627,0.29241517,1.29394758,0.76064605,-25.31423569,27.53580856,-109.4124527,0.08513916,-0.04288692,8.84654903,0.9970212,-0.00076963,0.00031584,-0.07712428,0.00230565,-0.00308688,-0.00277661,0,0,0,0,1,1
1,0.72,69,0.19288093,0.97864437,-0.09810865,0.6788196,0.72169143,0.34570125,-45.74685669,68.72259521,-90.85062408,1.04681909,3.65124154,-2.17644715,0.99926496,-0.00973382,-0.03167721,0.01927247,-0.00871121,0.00086613,0.00168027,0,0,0,0,1,1
2,0.7201,71,0.99099016,0.0686242,0.07598238,-0.22001058,-0.09647948,-0.80710131,-9.99707699,37.50365448,-67.58258057,1.69761467,0.09221377,0.70899153,0.9998709,-0.01480867,-0.00089627,-0.00617447,-0.00029484,-0.0014107,-0.00369621,0,0,0,0,1,1
4,0.7201,67,0.05646829,-0.92015421,-0.37918335,0.31019881,1.12087941,0.74076444,-25.16807938,27.36042023,-109.7339935,0.04133051,-0.05110199,8.86253357,0.99701059,-0.00039405,0.00041675,-0.07726324,0.00130029,-0.0029427,-0.00318109,0,0,0,0,1,1
1,0.73,70,0.19008586,0.98051864,-0.09676144,0.18271548,0.35107818,0.24936067,-45.74685669,68.72259521,-90.93832397,1.04800332,3.65407515,-2.17990565,0.99926353,-0.00974557,-0.03170143,0.01930317,-0.00566012,-0.00068738,0.00309375,0,0,0,0,1,1
2,0.7301,72,0.99117756,0.07052574,0.07558693,0.45931122,-0.23948975,-0.86854166,-10.66939449,37.53288651,-67.81642914,1.70711398,0.09061466,0.70556062,0.99986994,-0.01489167,-0.00088238,-0.00614467,0.0001275,0.00031468,-0.00345666,0,0,0,0,1,1
4,0.7301,68,0.05696194,-0.91890001,-0.37797514,0.5404039,1.17286539,0.79480362,-25.60654831,25.08038521,-109.2662964,0.04751892,-0.05401478,8.87605762,0.99700141,-0.00044991,0.00043787,-0.07738093,0.0005896,-0.00176327,-0.00476875,0,0,0,0,1,1
1,0.74,71,0.18777539,0.97554052,-0.09599397,-0.20641007,0.0686976,0.03436118,-45.57146835,69.01490784,-90.93832397,1.04584885,3.65448284,-2.18029499,0.99926353,-0.00972695,-0.03170532,0.019306,-0.00395489,-0.0010251,-0.00217202,0,0,0,0,1,1
2,0.7401,73,0.99216199,0.06845772,0.07864325,0.10179229,-0.01137331,-0.89695501,-10.8155508,38.49751663,-68.43028259,1.71348703,0.08591642,0.70645922,0.99986905,-0.01494752,-0.00084185,-0.00615308,0.00178787,-0.00302397,-0.00228846,0,0,0,0,1,1
4,0.7401,69,0.05617512,-0.91987783,-0.37736776,1.12376475,1.01790047,0.81268841,-25.63577843,27.30195808,-109.2955246,0.05946832,-0.05768222,8.88787174,0.99699336,-0.0005564,0.00046165,-0.07748379,0.0013527,-0.00100527,-0.00414169,0,0,0,0,1,1
1,0.75,72,0.18510079,0.97365767,-0.09706395,-0.32658875,-0.33235303,0.02054305,-45.48377609,68.83952332,-91.02601624,1.04324126,3.65435529,-2.17659259,0.99926436,-0.00970317,-0.03170495,0.01927298,-0.00151966,0.00023767,-0.00427449,0,0,0,0,1,1
2,0.7501,74,0.99271166,0.06925695,0.07816862,-0.23714088,0.17872825,-0.76871872,-11.1370945,37.97135162,-67.93334961,1.71773958,0.08049614,0.71339709,0.99986809,-0.01498487,-0.00079569,-0.00621429,0.00157537,-0.00218169,-0.00174666,0,0,0,0,1,1
4,0.7501,70,0.05509074,-0.92219824,-0.37597224,0.96325946,0.9492746,0.68919921,-24.75884247,25.92809105,-109.2370606,0.06972006,-0.06046754,8.8986845,0.99698603,-0.00064752,0.00047889,-0.07757791,0.00247334,0.0009688,-0.0025908,0,0,0,0,1,1
1,0.76,73,0.1830959,0.97749221,-0.09920181,0.15287903,-0.13584216,0.28359848,-45.57146835,68.51797485,-90.5875473,1.06306255,3.6326344,-2.16837311,0.99927008,-0.00987021,-0.03151292,0.01920515,0.00087117,0.00198173,-0.00055645,0,0,0,0,1,1
2,0.7601,75,0.99206054,0.07148626,0.08087362,-0.03999411,0.17542158,-0.70097262,-11.1370945,37.97135162,-67.93334961,1.72213221,0.07337605,0.71702325,0.99986738,-0.01502356,-0.00073427,-0.00624683,0.00492502,-0.00144946,-0.00204855,0,0,0,0,1,1
4,0.7601,71,0.05625038,-0.92340612,-0.3759737,0.78448123,1.05399299,0.55082452,-24.75884247,25.92809105,-109.2370606,0.07823993,-0.06157888,8.91004276,0.99697828,-0.00072245,0.00048272,-0.07767678,0.00135107,0.00126612,-0.00140623,0,0,0,0,1,1
1,0.77,74,0.1806051,0.98044103,-0.09620096,-0.25715968,1.04078925,0.50290638,-44.72376633,68.5764389,-90.55831909,1.05870354,3.6386621,-2.17786384,0.99926722,-0.00983579,-0.0315654,0.01928717,0.00343938,-0.00145824,0.00180915,0,0,0,0,1,1
2,0.7701,76,0.99008286,0.06724537,0.07863205,0.12060167,0.17581981,-0.79008675,-10.64016342,38.14673996,-67.96258545,1.72582531,0.06812635,0.71956992,0.99986684,-0.01505606,-0.000689,-0.00626972,0.00115123,-0.00433554,-0.00440539,0,0,0,0,1,1
4,0.7701,72,0.0574809,-0.92596191,-0.37476417,1.0128175,0.95130676,0.44608659,-25.460392,27.74042702,-109.4416809,0.12116046,-0.0835496,8.91932869,0.99697149,-0.00111082,0.00064469,-0.07775793,0.00012833,0.00304775,0.000569,0,0,0,0,1,1
1,0.78,75,0.17969252,0.97672665,-0.09759169,-0.2473276,1.73607683,0.37268323,-45.893013,68.34259033,-91.63986969,1.05313826,3.64407611,-2.19438434,0.99926341,-0.0097927,-0.03161214,0.0194301,0.00401169,0.00032362,-0.0018608,0,0,0,0,1,1
2,0.7801,77,0.98878455,0.06062877,0.07968567,0.37097049,0.12180991,-0.79342192,-10.49400711,38.46828461,-68.54721069,1.72633541,0.06451935,0.71972096,0.99986672,-0.01506071,-0.00065758,-0.00627151,-0.00075167,-0.01077717,-0.00589432,0,0,0,0,1,1
4,0.7801,73,0.05613538,-0.92728066,-0.37578914,0.53530705,1.15844131,0.42949083,-25.48962212,27.4481144,-109.5293732,0.12720612,-0.08315269,8.93134308,0.9969632,-0.00116321,0.00063701,-0.07786249,0.00129264,0.00204471,0.00209757,0,0,0,0,1,1
1,0.79,76,0.1787809,0.97627842,-0.09651099,-0.28309616,1.7704854,0.28772664,-45.893013,68.34259033,-91.63986969,1.04715288,3.64867973,-2.21127367,0.99925977,-0.00974593,-0.03165185,0.01957607,0.00494115,-0.00061631,-0.0024972,0,0,0,0,1,1
2,0.7901,78,0.99047923,0.05596574,0.0799098,0.13767421,0.07485909,-0.91380322,-10.46477604,37.21134186,-68.28412628,1.7255863,0.06165405,0.72048002,0.99986684,-0.01505432,-0.00063264,-0.00627852,-0.00281844,-0.01504548,-0.0043954,0,0,0,0,1,1
4,0.7901,74,0.05570025,-0.92877078,-0.37742084,0.41125745,1.24496818,0.4127996,-25.43115997,26.80502701,-109.500145,0.13205971,-0.08227607,8.94416523,0.99695444,-0.00120491,0.00062595,-0.07797407,0.0018548,0.00100766,0.00406662,0,0,0,0,1,1
1,0.8,77,0.18017916,0.98047793,-0.10190166,-0.12202981,0.52156216,-0.07073445,-45.30838776,68.28412628,-90.93832397,1.04497731,3.64848685,-2.21635818,0.99925911,-0.00972833,-0.03165011,0.01961979,0.00414469,0.00449095,0.0022585,0,0,0,0,1,1
2,0.8001,79,0.9921844,0.05998383,0.07638886,0.35156363,-0.06275702,-1.02259564,-10.26015759,38.11750793,-68.0210495,1.73004568,0.0598231,0.71418417,0.99986655,-0.01509337,-0.00061608,-0.0062238,-0.00441248,-0.00992649,-0.00283804,0,0,0,0,1,1
4,0.8001,75,0.05544805,-0.92628056,-0.37814823,0.67806828,1.03674769,0.51528519,-24.08652496,27.27272606,-108.9155197,0.13948214,-0.08313532,8.95529175,0.99694681,-0.00127013,0.00062825,-0.07807092,0.00198644,-0.00072641,0.00202774,0,0,0,0,1,1
1,0.81,78,0.18139523,0.98369139,-0.10342682,-0.06340313,-1.1456399,-0.37458771,-45.893013,67.40718842,-91.1137085,1.09872651,3.61510253,-2.19057059,0.99926811,-0.01018444,-0.03135208,0.01940715,0.00315891,0.00551378,0.0057,0,0,0,0,1,1
2,0.8101,80,0.99452782,0.06576941,0.07744052,0.56506544,-0.05947484,-1.26954401,-10.26015759,38.11750793,-68.0210495,1.73892438,0.05598766,0.71241671,0.99986553,-0.01517106,-0.00058286,-0.00620884,-0.00122245,-0.00532451,-0.00015107,0,0,0,0,1,1
4,0.8101,76,0.05409792,-0.92228246,-0.37869295,0.25628784,1.32894349,0.70884085,-25.7234726,27.41888237,-108.7985992,0.14288123,-0.08468561,8.97009945,0.99693674,-0.00130085,0.00063925,-0.07819978,0.00310785,-0.00282963,-0.0015376,0,0,0,0,1,1
1,0.82,79,0.18443288,0.97923189,-0.10408191,-0.44106662,-2.34887314,-0.55430156,-45.13300323,68.72259521,-90.85062408,1.098598,3.60724187,-2.16734076,0.99927425,-0.01017569,-0.03128562,0.01920393,-0.00088086,0.00583254,0.00168948,0,0,0,0,1,1
2,0.8201,81,0.99131548,0.07307301,0.07714196,0.61810523,-0.07457833,-1.39263666,-10.55247021,37.24057388,-67.52411652,1.75303471,0.04958272,0.70766485,0.99986386,-0.01529455,-0.0005271,-0.00616816,0.00193489,0.00115178,-0.00304343,0,0,0,0,1,1
4,0.8201,77,0.05305431,-0.91816717,-0.37893587,0.34754589,1.43125665,0.93680543,-25.7234726,27.41888237,-108.7985992,0.08822273,-0.12578578,8.99200249,0.9969219,-0.00085357,0.00103396,-0.07839027,0.0037162,-0.00443287,-0.00530779,0,0,0,0,1,1
1,0.83,80,0.18625578,0.97731513,-0.1030091,-0.48276058,-1.96723652,-0.36698562,-45.48377609,68.81028748,-91.08448029,1.09737051,3.60162568,-2.14764881,0.9992792,-0.0101587,-0.0312386,0.01903143,-0.00305514,0.0049295,-0.00007993,0,0,0,0,1,1
2,0.8301,82,0.98925221,0.07836271,0.07601948,0.63598514,-0.03989312,-1.40989816,-10.58170128,38.11750793,-68.34259033,1.77001429,0.04204363,0.70321947,0.99986196,-0.01544313,-0.00046163,-0.00613031,0.00333958,0.00610957,-0.00495445,0,0,0,0,1,1
4,0.8301,78,0.05334358,-0.9141534,-0.38039154,0.36584219,1.3617177,0.97062457,-25.22654152,26.74656487,-109.1201401,0.09280538,-0.12962323,9.00803566,0.99691087,-0.00089621,0.00106408,-0.07852982,0.00268263,-0.00660024,-0.00844677,0,0,0,0,1,1
1,0.84,81,0.18990234,0.97570002,-0.09804311,-0.52438629,-0.28256392,0.05846848,-45.48377609,68.81028748,-91.08448029,1.09273291,3.60191679,-2.14416528,0.9992801,-0.01011736,-0.03124221,0.01899981,-0.00695219,0.00017012,-0.00163607,0,0,0,0,1,1
2,0.8401,83,0.99193692,0.07884451,0.07553197,0.44042531,0.06083357,-1.19687271,-9.96784592,36.56825638,-67.72873688,1.78466737,0.03477826,0.69982046,0.99986011,-0.01557138,-0.00039856,-0.00610158,0.00271617,0.00648204,-0.00229765,0,0,0,0,1,1
4,0.8401,79,0.05156615,-0.91401416,-0.3819007,0.57799542,1.48310471,1.00822806,-25.84039688,27.47734642,-108.9155197,0.09955622,-0.13335051,9.02520752,0.99689901,-0.00095766,0.00109174,-0.07867929,0.00441836,-0.00815568,-0.00810776,0,0,0,0,1,1
1,0.85,82,0.19439973,0.97574735,-0.09705116,-0.43788132,1.17770195,0.49200723,-44.66530228,68.19643402,-90.52908325,1.08634579,3.60796809,-2.15479946,0.99927717,-0.01006554,-0.0312951,0.01909128,-0.0113526,-0.00071902,-0.00112151,0,0,0,0,1,1
2,0.8501,84,0.99579489,0.08181284,0.07617028,0.26257256,0.07521049,-0.98505563,-10.55247021,37.4159584,-67.61180878,1.79886031,0.02671221,0.69211692,0.99985862,-0.01569567,-0.00032788,-0.00603542,0.00405427,0.00862271,0.00173751,0,0,0,0,1,1
4,0.8501,80,0.05304651,-0.91881382,-0.38026652,1.31769311,1.52024186,0.87327385,-25.43115997,25.02192307,-108.9739838,0.11369689,-0.13569194,9.04177856,0.99688739,-0.00108244,0.00110224,-0.0788236,0.0031136,-0.00501294,-0.00420645,0,0,0,0,1,1
1,0.86,83,0.19330673,0.97722512,-0.09042673,-0.19785999,1.89269674,0.77592134,-45.16223145,67.93334961,-90.93832397,0.97030568,3.71361399,-2.20575523,0.99924868,-0.00908503,-0.03223165,0.01951116,-0.009583,-0.00686026,-0.00029462,0,0,0,0,1,1
2,0.8601,85,0.99177444,0.08125558,0.07817736,-0.13041534,0.1282828,-0.87532878,-10.55247021,37.4159584,-67.61180878,1.81004214,0.01832521,0.69444388,0.99985701,-0.01579368,-0.00025561,-0.00605685,0.00586376,0.00702313,-0.00209887,0,0,0,0,1,1
4,0.8601,81,0.05714671,-0.92240167,-0.37845701,1.54627347,1.41741741,0.78591949,-25.25577354,27.71119499,-108.7985992,0.13003777,-0.13761492,9.0569334,0.99687678,-0.00122607,0.00110757,-0.07895563,-0.00085803,-0.00225467,-0.00133677,0,0,0,0,1,1
1,0.87,84,0.18571076,0.97904408,-0.08607145,-0.17580588,1.562796,0.780936,-45.42531204,68.10874176,-90.38292694,0.96580338,3.72290254,-2.22026062,0.99924386,-0.0090514,-0.03231228,0.01963702,-0.00044466,-0.00981579,0.00030096,0,0,0,0,1,1
2,0.8701,86,0.98787892,0.07871246,0.08209323,-0.79227698,0.02943414,-0.79944909,-10.58170128,38.02981567,-68.37181854,1.81789875,0.00952862,0.70419782,0.99985528,-0.01586268,-0.00018063,-0.00614315,0.00849807,0.0028438,-0.00572772,0,0,0,0,1,1
4,0.8701,82,0.05776171,-0.92621189,-0.37845549,1.35097349,1.33112586,0.69676769,-25.25577354,27.71119499,-108.7985992,0.15813367,-0.12786044,9.06986237,0.99686766,-0.00146388,0.00100319,-0.07906825,-0.00124671,-0.0011361,0.00221858,0,0,0,0,1,1
1,0.88,85,0.17896421,0.97806549,-0.08999743,-0.18447487,0.86769986,0.7035777,-45.36685181,68.63490295,-90.85062408,0.96249813,3.73074579,-2.22794867,0.99924064,-0.00902605,-0.03238063,0.01970366,0.00631718,-0.00575607,-0.00116259,0,0,0,0,1,1
2,0.8801,87,0.9878003,0.07301897,0.08230788,-1.50839627,0.02064009,-0.8792212,-10.46477604,37.12364578,-67.99181366,1.82292175,0.00136183,0.71911794,0.99985391,-0.01590693,-0.00011171,-0.00627446,0.0060468,-0.00246078,-0.00603604,0,0,0,0,1,1
4,0.8801,83,0.05954511,-0.92907774,-0.37664181,1.13885427,1.53847897,0.7162239,-25.22654152,27.47734642,-108.8278275,0.17045999,-0.1286948,9.08611298,0.99685627,-0.00157183,0.00100172,-0.07920974,-0.00278187,0.00122103,0.004284,0,0,0,0,1,1
1,0.89,86,0.17191462,0.98102516,-0.09489981,0.4055641,0.97893322,0.59939802,-45.36685181,68.63490295,-90.85062408,0.96476775,3.73766994,-2.23755479,0.99923682,-0.00904972,-0.03243986,0.01978853,0.01384832,-0.00110979,0.00131187,0,0,0,0,1,1
2,0.8901,88,0.99417019,0.0637069,0.08062317,-1.31130743,0.19158044,-0.89680892,-10.55247021,37.88365936,-67.9041214,1.8231442,-0.00482951,0.73095006,0.99985319,-0.0159092,-0.00005934,-0.00637856,-0.00029977,-0.01011388,-0.00026314,0,0,0,0,1,1
4,0.8901,84,0.06222409,-0.92906797,-0.37701029,1.08657038,1.55528975,0.76837587,-25.05115509,27.50657654,-108.9739838,0.1822692,-0.1299523,9.10274792,0.99684459,-0.00167557,0.00100425,-0.07935458,-0.00546651,0.00066807,0.00457268,0,0,0,0,1,1
1,0.9,87,0.16960602,0.98559886,-0.09727116,-0.11443464,1.16425061,0.31607687,-45.10377121,66.23793793,-90.64601135,0.96154433,3.74194217,-2.24863458,0.99923396,-0.00902547,-0.0324768,0.01988452,0.01680393,0.00089064,0.00575261,0,0,0,0,1,1
2,0.9001,89,0.99556804,0.06408705,0.07916874,-0.68356556,0.54443711,-0.74211985,-10.84478188,37.15287781,-67.49488068,1.82128274,-0.01198933,0.73989439,0.9998529,-0.01589336,0.00000199,-0.0064576,-0.00168128,-0.00910542,0.00101224,0,0,0,0,1,1
4,0.9001,85,0.06373629,-0.92759389,-0.37840605,0.82456475,1.57046187,0.97595197,-24.96346092,27.21426392,-109.1493683,0.19152917,-0.13307868,9.12045288,0.99683213,-0.00175845,0.00102476,-0.07950871,-0.00706795,-0.00135582,0.00382948,0,0,0,0,1,1
1,0.91,88,0.1675991,0.98119479,-0.10134453,-0.66388208,0.86271125,-0.00220023,-45.45454407,68.75182343,-90.64601135,1.02990353,3.52971506,-2.23386598,0.99928999,-0.00958182,-0.03061549,0.01975962,0.0174169,0.00509517,0.00142477,0,0,0,0,1,1
2,0.9101,90,0.99232602,0.08637425,0.07516293,-0.28916803,0.22417909,-0.45302653,-10.84478188,37.15287781,-67.49488068,1.83140826,-0.0189492,0.74199313,0.99985141,-0.0159821,0.00006186,-0.00647688,0.00470553,0.01257736,-0.001584,0,0,0,0,1,1
4,0.9101,86,0.06165567,-0.92359871,-0.37882832,0.50779378,1.62114978,1.06210303,-25.84039688,27.50657654,-108.3601303,0.19768432,-0.13681673,9.13914013,0.99681896,-0.00181476,0.00105271,-0.07967138,-0.00526188,-0.0033961,0.00017787,0,0,0,0,1,1
1,0.92,89,0.16936125,0.97997481,-0.10159601,-0.47123572,-0.12533705,-0.19563474,-45.42531204,67.64103699,-91.17217255,1.02546859,3.5276382,-2.23224545,0.99929124,-0.00954237,-0.03059828,0.01974416,0.01272271,0.00453735,0.000289,0,0,0,0,1,1
2,0.9201,91,0.98927885,0.0926799,0.07181657,0.0325197,0.01400329,-0.44149309,-10.64016342,37.82519531,-67.67027283,1.8464911,-0.02349948,0.74360955,0.99984908,-0.01611396,0.00010048,-0.00649163,0.00467865,0.01946625,-0.00463071,0,0,0,0,1,1
4,0.9201,87,0.05805775,-0.92112714,-0.37864131,0.38461423,1.41303217,1.05840302,-25.51885414,27.53580856,-108.6816711,0.13499111,-0.1327797,9.15928364,0.99680591,-0.00126677,0.00106096,-0.07984596,-0.00184717,-0.00396111,-0.00238761,0,0,0,0,1,1
1,0.93,90,0.17367561,0.97875702,-0.10541259,-0.65204102,-1.39592445,-0.2063323,-46.24378967,68.86875153,-90.64601135,1.02154231,3.52419829,-2.21784568,0.999295,-0.00950371,-0.03057015,0.01961729,0.00827473,0.00851449,-0.00009343,0,0,0,0,1,1
2,0.9301,92,0.98964959,0.08240798,0.07971902,-1.02237594,0.10762452,-0.32415372,-9.73399544,37.29903412,-67.84565735,1.85174,-0.03030108,0.75410444,0.99984777,-0.01616016,0.00015805,-0.00658417,0.00710802,0.00659915,-0.00399745,0,0,0,0,1,1
4,0.9301,88,0.05719541,-0.9205662,-0.37991059,0.31256729,1.50021005,0.9724347,-25.51885414,27.53580856,-108.6816711,0.13911252,-0.13612525,9.17663288,0.99679375,-0.00130512,0.00108699,-0.07999697,-0.00094325,-0.0045373,-0.00247793,0,0,0,0,1,1
1,0.94,91,0.17835444,0.97622687,-0.10773028,-0.51705426,-2.22855902,-0.0476553,-46.24378967,68.86875153,-90.64601135,1.02050078,3.52152371,-2.19520807,0.99929965,-0.00948815,-0.03054888,0.0194194,0.00329612,0.01106797,-0.00184895,0,0,0,0,1,1
2,0.9401,93,0.98912454,0.06849405,0.08156542,-1.77285039,0.1624798,-0.14064234,-10.64016342,37.73750305,-68.13796997,1.84686923,-0.03468196,0.77007091,0.99984753,-0.01611794,0.00019431,-0.00672409,0.00261608,-0.00668114,-0.00497075,0,0,0,0,1,1
4,0.9401,89,0.05718876,-0.9198283,-0.38075823,0.54178137,1.67387772,0.97613186,-25.16807938,28.17889404,-108.3601303,0.14561129,-0.13885048,9.19546795,0.99678046,-0.00136374,0.00110594,-0.08016089,-0.00100526,-0.00569312,-0.00283845,0,0,0,0,1,1
1,0.95,92,0.18339971,0.97827458,-0.10191765,-0.18040083,-2.10329342,0.30035824,-45.77608871,68.43028259,-91.31832886,1.02259302,3.52244592,-2.17388272,0.99930274,-0.00950086,-0.03055833,0.01923406,-0.00153827,0.00510085,0.0003231,0,0,0,0,1,1
2,0.9501,94,0.99083102,0.06138658,0.08587436,-1.14595497,0.24066809,-0.04161321,-9.76322746,37.21134186,-68.13796997,1.83654475,-0.03919088,0.78129274,0.99984825,-0.01602814,0.00023269,-0.00682261,0.00310741,-0.01481213,-0.00320314,0,0,0,0,1,1
4,0.9501,90,0.0568826,-0.92398685,-0.38190421,0.43391469,1.53633165,0.81709903,-24.84653664,27.21426392,-109.2662964,0.1509196,-0.14062478,9.21248913,0.99676847,-0.00141132,0.00111745,-0.08030902,-0.00048981,-0.00528491,0.00141892,0,0,0,0,1,1
1,0.96,93,0.18255153,0.98593831,-0.09156673,-0.07103667,-0.99020582,0.63448095,-45.77608871,68.4595108,-90.49985504,0.93154156,3.50555134,-2.16712379,0.99931574,-0.00870228,-0.03042679,0.01914972,0.00010502,-0.00548355,0.00696917,0,0,0,0,1,1
2,0.9601,95,0.98951072,0.06466384,0.08829503,-0.30490249,0.14526531,0.01810692,-9.76322746,37.21134186,-68.13796997,1.82850969,-0.04493629,0.78017849,0.99984944,-0.01595837,0.00028345,-0.00681368,0.00674046,-0.01276472,-0.00415772,0,0,0,0,1,1
4,0.9601,91,0.05727262,-0.92433989,-0.37827432,0.30801982,1.57199132,0.66056424,-24.81730461,27.33119011,-108.7401352,0.15494235,-0.14081518,9.22933197,0.99675661,-0.00144661,0.00111607,-0.08045557,-0.00094951,-0.00187565,0.00039301,0,0,0,0,1,1
1,0.97,94,0.17781083,0.98190159,-0.08509818,-1.03032124,-0.06284992,0.38174492,-45.39608383,68.63490295,-90.87985992,0.92156255,3.5092659,-2.16489506,0.99931586,-0.00861527,-0.03046102,0.01912788,0.00404791,-0.01029711,0.00184917,0,0,0,0,1,1
2,0.9701,96,0.9868148,0.0705177,0.08215125,0.60673761,-0.08568976,-0.06435146,-10.8155508,38.00058365,-67.84565735,1.82751763,-0.04666347,0.77363747,0.99984992,-0.0159498,0.00029949,-0.00675684,0.00403368,-0.00474733,-0.00713792,0,0,0,0,1,1
4,0.9701,92,0.05795033,-0.92176127,-0.3765834,0.02457667,1.64117372,0.60807669,-25.57731628,26.36655998,-109.3247604,0.12450319,-0.11516574,9.24804783,0.99674398,-0.00116398,0.00091415,-0.08061784,-0.00169186,-0.00118637,-0.00258985,0,0,0,0,1,1
1,0.98,95,0.17501464,0.97817087,-0.08207203,-1.04668796,0.05906568,-0.16719922,-45.98070526,68.54721069,-90.5875473,0.91112,3.5076375,-2.16436434,0.99931717,-0.0085238,-0.0304486,0.01912037,0.00635481,-0.01281804,-0.00242488,0,0,0,0,1,1
2,0.9801,97,0.98915178,0.07582761,0.0822254,0.67762977,-0.23997985,-0.13684388,-10.23092651,37.85442734,-68.10874176,1.83033621,-0.04814728,0.76941168,0.99984986,-0.01597447,0.00031286,-0.00672019,0.00615948,-0.00003849,-0.00456965,0,0,0,0,1,1
4,0.9801,93,0.05903373,-0.91931826,-0.37810004,0.23449299,1.78112698,0.48948669,-25.57731628,26.36655998,-109.3247604,0.12786388,-0.11297458,9.26621819,0.99673128,-0.00119181,0.00089254,-0.0807759,-0.00251888,-0.00314108,-0.00420971,0,0,0,0,1,1
1,0.99,96,0.1781137,0.97576278,-0.08087891,-0.35827231,-0.41914281,-0.5186519,-45.98070526,68.54721069,-90.5875473,0.90827334,3.50206208,-2.16027808,0.99931949,-0.00849698,-0.03040076,0.01908362,0.00290121,-0.01370424,-0.00453381,0,0,0,0,1,1
2,0.9901,98,0.99214447,0.07011633,0.07387926,0.76691604,-0.24005042,-0.17276223,-10.66939449,38.00058365,-68.37181854,1.83282816,-0.04408806,0.76266855,0.99984986,-0.01599596,0.00027824,-0.00666079,-0.00407446,-0.00154563,-0.00259893,0,0,0,0,1,1
4,0.9901,94,0.0617642,-0.91910738,-0.37986037,0.44483775,1.83432293,0.3869884,-25.31423569,27.33119011,-109.3539887,0.1333506,-0.10963526,9.28437424,0.99671835,-0.00123732,0.00085943,-0.08093383,-0.00516682,-0.00493494,-0.00357708,0,0,0,0,1,1
1,1,97,0.18328063,0.98245746,-0.08512514,0.23330195,-0.41211766,-0.66126716,-45.51300812,68.98567963,-90.79216766,0.91120911,3.49508977,-2.15711665,0.9993217,-0.00852062,-0.0303397,0.01905638,-0.00149352,-0.01004122,0.00304832,0,0,0,0,1,1
2,1.0001,99,0.99425161,0.05876026,0.07557389,0.87432659,-0.17171188,-0.19059229,-10.66939449,38.00058365,-68.37181854,1.82893598,-0.03859329,0.75518841,0.99985087,-0.01596167,0.00023156,-0.00659475,-0.00764282,-0.01246503,-0.00085379,0,0,0,0,1,1
4,1.0001,95,0.06128249,-0.92008549,-0.37919313,-0.03580251,1.17510879,-0.13393402,-25.48962212,27.4481144,-108.9155197,0.13357443,-0.10395961,9.29475594,0.99671113,-0.00123533,0.00080979,-0.08102407,-0.00456433,-0.00400083,-0.00295479,0,0,0,0,1,1
1,1.01,98,0.19136307,0.98212373,-0.09030592,0.15414771,0.14293025,-0.57108802,-46.09763336,68.19643402,-90.9967804,0.87821239,3.60910106,-2.15911627,0.99929285,-0.00825189,-0.0313393,0.01907212,-0.00909386,-0.00473434,0.00413461,0,0,0,0,1,1
2,1.0101,100,0.99182272,0.0562032,0.07990852,0.6234225,-0.04575219,-0.32622385,-11.19555664,38.00058365,-68.37181854,1.82307625,-0.03659716,0.75054544,0.99985194,-0.01591041,0.00021513,-0.00655395,-0.00458687,-0.01656889,-0.00299477,0,0,0,0,1,1
4,1.0101,96,0.06329658,-0.91918397,-0.37853226,-0.39238003,0.30823863,-0.65735728,-25.51885414,28.14966393,-108.9739838,0.12968266,-0.09670974,9.29535961,0.99671072,-0.00119636,0.00074948,-0.08102923,-0.00651572,-0.00366382,-0.00391985,0,0,0,0,1,1
1,1.02,99,0.19093734,0.98167419,-0.09267887,0.09274771,0.78521377,-0.65082282,-45.60070038,68.63490295,-90.76293182,0.87758601,3.60337424,-2.16762424,0.99929297,-0.00824782,-0.03128885,0.01914578,-0.00723909,-0.00188081,0.00391142,0,0,0,0,1,1
2,1.0201,101,0.99350762,0.06788609,0.07959945,0.7304157,-0.13217251,-0.3633506,-11.0786314,38.29289627,-68.63490295,1.82410467,-0.03660292,0.74545598,0.99985206,-0.01591938,0.00021582,-0.00650954,0.0000997,-0.0059048,-0.00082961,0,0,0,0,1,1
4,1.0201,97,0.06388838,-0.91938651,-0.38125613,-0.67583376,0.15248638,-0.74797076,-25.43115997,27.74042702,-109.3539887,0.05299405,-0.0237897,9.29684734,0.9967106,-0.00047776,0.00016944,-0.08104139,-0.00662027,-0.00571443,-0.00266728,0,0,0,0,1,1
1,1.03,100,0.18686534,0.98220366,-0.09511577,0.07087203,1.01068294,-0.45209447,-45.80532074,68.40105438,-91.25986481,0.87634242,3.59984398,-2.17814231,0.99929225,-0.00823927,-0.03125751,0.01923695,-0.00317993,0.000521,0.00413202,0,0,0,0,1,1
2,1.0301,102,0.99442863,0.08479838,0.08192132,0.62322652,-0.09708837,-0.34430426,-10.52323914,38.26366425,-68.07950592,1.83265781,-0.04208979,0.74217969,0.99985105,-0.01599431,0.00026367,-0.00648174,0.00942124,0.00815171,0.00105075,0,0,0,0,1,1
4,1.0301,98,0.0637052,-0.91751653,-0.38089409,-0.55061179,0.20372228,-0.62491125,-25.43115997,27.15580177,-109.4124527,0.04747236,-0.0172354,9.29669285,0.99671078,-0.0004251,0.00011634,-0.08104002,-0.00556914,-0.00507147,-0.00454474,0,0,0,0,1,1
1,1.04,101,0.18668158,0.97762632,-0.09972867,-0.22581767,0.38162446,-0.40375471,-45.48377609,69.01490784,-90.85062408,0.8733629,3.5961864,-2.18204093,0.99929285,-0.00821375,-0.03122584,0.01926991,-0.0035684,0.00552556,-0.00005527,0,0,0,0,1,1
2,1.0401,103,0.99460793,0.09185254,0.0763313,0.44454542,-0.02687327,-0.32407323,-11.1370945,38.08827972,-68.19643402,1.84536743,-0.04688451,0.7416994,0.99984926,-0.01610547,0.00030485,-0.00647825,0.00741632,0.0167451,0.00104287,0,0,0,0,1,1
4,1.0401,99,0.06346366,-0.91957211,-0.38101313,-0.31729972,-0.05750274,-0.40168729,-25.43115997,27.15580177,-109.4124527,0.04417973,-0.01373572,9.29482841,0.99671209,-0.00039399,0.00008823,-0.08102378,-0.00513298,-0.00432258,-0.00261541,0,0,0,0,1,1
1,1.05,102,0.18601187,0.97306079,-0.10149409,-0.27269253,-0.15759304,-0.40590504,-45.48377609,69.01490784,-90.85062408,0.87090486,3.59198833,-2.18053055,0.9992944,-0.00819122,-0.03118975,0.01925581,-0.00351134,0.00770405,-0.00451815,0,0,0,0,1,1
2,1.0501,104,0.99158013,0.09142793,0.08155026,-0.07498073,-0.29753071,-0.33913997,-11.1370945,38.08827972,-68.19643402,1.85736299,-0.05233074,0.74554569,0.99984741,-0.01621046,0.00035115,-0.00651261,0.01210609,0.01384495,-0.0015091,0,0,0,0,1,1
4,1.0501,100,0.06164547,-0.91989821,-0.37955704,0.14379643,-0.1615555,-0.27932584,-25.51885414,27.36042023,-109.1201401,0.04546131,-0.0117622,9.29219627,0.996714,-0.00040374,0.00007017,-0.08100089,-0.00328749,-0.00283537,-0.0029727,0,0,0,0,1,1
1,1.06,103,0.18686225,0.97059214,-0.10043368,-0.07183974,-0.52026242,-0.28236187,-45.60070038,69.13182831,-91.08448029,0.89657789,3.63056898,-2.17002511,0.99928373,-0.00841853,-0.03152265,0.01917362,-0.0045463,0.00674729,-0.00693347,0,0,0,0,1,1
2,1.0601,105,0.98884827,0.08225024,0.07820374,-0.53960574,-0.15649059,-0.28003713,-11.0786314,38.3221283,-67.99181366,1.86369848,-0.05478822,0.75540888,0.99984586,-0.01626591,0.00037083,-0.00659904,0.00528401,0.00693504,-0.00493219,0,0,0,0,1,1
4,1.0601,101,0.05953021,-0.9227137,-0.3774935,0.49888182,-0.12735295,-0.13802773,-25.1973114,27.88658333,-109.1786041,0.0503329,-0.01096593,9.290205,0.99671543,-0.00044554,0.00005981,-0.08098356,-0.00105227,0.00008247,-0.00127836,0,0,0,0,1,1
1,1.07,104,0.18254867,0.97408956,-0.09379585,-0.00963354,0.10579138,-0.01766387,-46.18532562,68.54721069,-90.87985992,0.89629102,3.63049769,-2.17107701,0.99928361,-0.00841631,-0.03152201,0.01918271,0.00061236,-0.00047894,-0.00448764,0,0,0,0,1,1
2,1.0701,106,0.98804349,0.0583726,0.07941069,-0.16327518,-0.07562862,-0.1957531,-10.37708282,38.49751663,-67.9041214,1.85658824,-0.05201905,0.76232851,0.99984652,-0.01620373,0.0003461,-0.006659,-0.00397718,-0.01501026,-0.00668393,0,0,0,0,1,1
4,1.0701,102,0.05836233,-0.92510653,-0.37954661,0.76387095,-0.28263539,-0.15645184,-25.86962891,28.00350761,-108.9447556,0.04180244,-0.02140822,9.28635979,0.99671811,-0.00037872,0.00015668,-0.08095015,0.00025247,-0.00095791,0.00164098,0,0,0,0,1,1
1,1.08,105,0.18024163,0.98238325,-0.08805077,0.14906488,1.56698918,0.31157163,-45.74685669,68.31335449,-91.37679291,0.89493424,3.63510442,-2.18647242,0.99927986,-0.00840947,-0.03156127,0.01931688,0.00390235,-0.00686949,0.00298356,0,0,0,0,1,1
2,1.0801,107,0.98774213,0.05514998,0.08239314,-0.14484856,-0.14774264,-0.05698111,-11.10786343,38.23443222,-68.13796997,1.84626138,-0.04878526,0.76888067,0.99984765,-0.01611346,0.00031757,-0.00671569,-0.00264331,-0.01904197,-0.00686261,0,0,0,0,1,1
4,1.0801,103,0.05789773,-0.92961907,-0.37706164,0.47851944,-0.00473775,-0.31014019,-25.37269783,25.98655319,-109.003212,0.04650854,-0.01855602,9.28486156,0.99671912,-0.00041764,0.00012855,-0.0809371,0.00079798,0.00315337,0.00483983,0,0,0,0,1,1
1,1.09,106,0.18145743,0.98437047,-0.08953265,-0.25837237,2.63958812,0.30216083,-45.60070038,68.31335449,-91.55217743,0.88758838,3.64063811,-2.21200609,0.99927449,-0.00835336,-0.03160891,0.01953787,0.00304629,-0.00546119,0.00522013,0,0,0,0,1,1
2,1.0901,108,0.99134684,0.05864089,0.08079716,0.49833745,-0.25407451,-0.20498745,-11.28325081,37.91289139,-68.10874176,1.84076142,-0.04512708,0.76772869,0.99984854,-0.01606525,0.00028613,-0.00670511,-0.00283556,-0.01507576,-0.00327,0,0,0,0,1,1
1,1.1,107,0.17744648,0.98574406,-0.09116913,-0.16501132,2.4323442,0.08626145,-45.60070038,68.31335449,-91.55217743,0.88150972,3.64381957,-2.2358017,0.99926996,-0.00830745,-0.03163596,0.01974389,0.00728104,-0.00381833,0.00622667,0,0,0,0,1,1
2,1.1001,109,0.99240136,0.06396031,0.08069433,0.72999829,-0.2869314,-0.38264722,-11.28325081,37.91289139,-68.10874176,1.84019423,-0.0433738,0.76270521,0.99984884,-0.01606019,0.00027157,-0.00666103,-0.00066589,-0.01020765,-0.00199566,0,0,0,0,1,1
1,1.11,108,0.17306945,0.98048973,-0.09223422,-0.62797147,0.91537726,-0.13892479,-46.00993729,67.93334961,-91.34755707,0.85047793,3.51884103,-2.25026989,0.99930394,-0.00801969,-0.03055042,0.01985407,0.01047675,-0.0021072,0.00054662,0,0,0,0,1,1
2,1.1101,110,0.99058914,0.07077295,0.07995847,0.30007172,-0.08925595,-0.56793678,-10.90324497,37.94212341,-68.16719818,1.84370494,-0.04584088,0.76175606,0.99984837,-0.01609096,0.00029303,-0.0066531,0.001828,-0.0038032,-0.00356178,0,0,0,0,1,1
4,1.1101,104,0.05661368,-0.923702,-0.37639776,-0.6148833,0.07887093,-0.19247398,-25.05115509,27.03887749,-109.2078323,0.04204669,-0.01079133,9.28062153,0.99672216,-0.00037334,0.00006418,-0.0809002,0.00188095,0.001523,-0.00095211,0,0,0,0,1,1
1,1.12,109,0.17167023,0.97577864,-0.09624844,-0.48021752,-0.75084376,-0.37422472,-45.6299324,68.4595108,-91.2306366,0.84705073,3.51439404,-2.24261284,0.99930668,-0.00798701,-0.03051276,0.01978612,0.0096564,0.00267028,-0.0040746,0,0,0,0,1,1
2,1.1201,111,0.99225783,0.08046453,0.07767817,-0.02207249,-0.17286141,-0.54797184,-11.16632557,38.11750793,-68.5764389,1.85256326,-0.04872601,0.76389289,0.99984705,-0.01616843,0.00031738,-0.00667217,0.00382492,0.00577478,-0.00167381,0,0,0,0,1,1
4,1.1201,105,0.05677947,-0.92022789,-0.37821582,-0.96678013,0.26780781,-0.0696602,-25.51885414,27.59427071,-109.2078323,-0.00028527,-0.04082972,9.28275776,0.99672067,-0.00002635,0.00035534,-0.08091874,0.00146356,-0.0011857,-0.00346238,0,0,0,0,1,1
1,1.13,110,0.17647046,0.97462088,-0.10351779,-0.07298847,-1.7016052,-0.60251391,-45.80532074,68.28412628,-91.34755707,0.84932822,3.50677848,-2.22624969,0.99931133,-0.00800124,-0.0304471,0.01964357,0.00470816,0.01000597,-0.00406515,0,0,0,0,1,1
2,1.1301,112,0.99170196,0.07993067,0.0767018,-0.27295569,-0.23838587,-0.5984723,-11.45863724,36.86056519,-68.19643402,1.86197126,-0.05095864,0.76694131,0.99984545,-0.01625065,0.00033588,-0.00669911,0.00272244,0.00556034,-0.00233336,0,0,0,0,1,1
4,1.1301,106,0.05767858,-0.91651553,-0.3796725,-1.19470096,0.40486571,0.07036164,-25.98655319,27.76965714,-108.6816711,-0.01196695,-0.03994465,9.287467,0.99671739,0.00007587,0.00035589,-0.08095968,0.00000271,-0.00332324,-0.00628634,0,0,0,0,1,1
1,1.14,111,0.18461359,0.9728322,-0.10605116,0.36051404,-2.00934148,-0.58250761,-45.80532074,68.98567963,-91.49371338,0.85643238,3.49907231,-2.20735192,0.99931616,-0.00805689,-0.03038001,0.0194802,-0.0037023,0.01257504,-0.00465338,0,0,0,0,1,1
2,1.1401,113,0.99039626,0.06925828,0.07896545,-0.61301452,-0.25212836,-0.61244619,-10.84478188,37.47442245,-68.25489807,1.86555839,-0.05246087,0.76872259,0.99984491,-0.01628205,0.00034853,-0.00671488,0.00017313,-0.00512207,-0.00389778,0,0,0,0,1,1
4,1.1401,107,0.05851419,-0.91647661,-0.3823365,-1.07079852,0.38763455,0.08808637,-25.40192986,25.31423569,-108.9447556,-0.02243589,-0.0392861,9.29200935,0.99671412,0.00016738,0.00035757,-0.08099915,-0.00076154,-0.00560421,-0.00526396,0,0,0,0,1,1
1,1.15,112,0.18978,0.972848,-0.09966043,0.49662754,-1.59099591,-0.2568056,-45.80532074,68.98567963,-91.49371338,0.86416292,3.4950068,-2.19245338,0.99931926,-0.00811968,-0.0303443,0.01935208,-0.00899051,0.00607407,-0.00452649,0,0,0,0,1,1
2,1.1501,114,0.98931748,0.07315978,0.08042484,-0.37898687,-0.22579119,-0.33501771,-10.84478188,37.47442245,-68.25489807,1.8680979,-0.05419195,0.77108091,0.99984443,-0.01630431,0.00036315,-0.00673571,0.00326459,-0.0023043,-0.00466449,0,0,0,0,1,1
4,1.1501,108,0.05710777,-0.9142977,-0.38257727,-0.75358844,0.47512367,0.05615291,-25.40192986,25.31423569,-108.9447556,-0.02968412,-0.03800174,9.29704952,0.99671054,0.00023131,0.00035153,-0.08104297,0.00054754,-0.00650641,-0.00726772,0,0,0,0,1,1
1,1.16,113,0.19227247,0.97353595,-0.0932728,0.53935796,-0.89576954,0.13166884,-45.893013,68.75182343,-91.37679291,0.84310728,3.64091253,-2.18067145,0.9992829,-0.00795687,-0.03162106,0.01925236,-0.01083569,-0.00035622,-0.00401594,0,0,0,0,1,1
2,1.1601,115,0.99194372,0.08086337,0.07556344,0.23050399,-0.20177625,-0.11409648,-10.87401295,37.85442734,-67.9041214,1.87404001,-0.0538428,0.76989245,0.99984366,-0.01635614,0.00035992,-0.00672531,0.00201683,0.00667379,-0.00214716,0,0,0,0,1,1
4,1.1601,109,0.05601564,-0.9164809,-0.38233146,-0.31341463,0.18254633,-0.08516648,-25.51885414,27.27272606,-108.9155197,-0.03274625,-0.03651924,9.29859829,0.99670947,0.00025899,0.0003408,-0.08105642,0.00177763,-0.00537196,-0.00540866,0,0,0,0,1,1
1,1.17,114,0.19343014,0.98300147,-0.08428139,0.29253235,-0.03029716,0.68427694,-45.893013,68.4595108,-90.55831909,0.84613198,3.64770317,-2.18008161,0.99928087,-0.00798419,-0.03167981,0.01924845,-0.00894999,-0.0098013,0.00489101,0,0,0,0,1,1
2,1.1701,116,0.99266958,0.07809868,0.07606331,1.03604138,-0.33282551,0.01549663,-10.84478188,37.18210983,-68.25489807,1.87875903,-0.05127572,0.75892431,0.99984354,-0.01639713,0.00033882,-0.00662926,0.00121393,0.003876,-0.00149936,0,0,0,0,1,1
4,1.1701,110,0.05716991,-0.9175567,-0.38311958,0.03822457,0.11487675,-0.20617168,-25.40192986,26.57117844,-108.9155197,-0.08606628,-0.02381282,9.30028915,0.99670804,0.00073175,0.00026801,-0.08107106,0.00078182,-0.00544697,-0.00404836,0,0,0,0,1,1
1,1.18,115,0.18838625,0.98459005,-0.08422206,-0.77451378,0.75646645,0.80775744,-44.37298965,68.92721558,-91.14293671,0.83725119,3.65644693,-2.18587184,0.99927801,-0.00790979,-0.03175715,0.019297,-0.00360559,-0.00991311,0.00585545,0,0,0,0,1,1
2,1.1801,117,0.99243641,0.07738745,0.07884215,0.46415323,-0.19117551,0.09324045,-10.90324497,38.0590477,-68.31335449,1.88060868,-0.05127319,0.75219488,0.99984366,-0.01641325,0.00033965,-0.00657055,0.00343252,0.00196348,-0.00150979,0,0,0,0,1,1
4,1.1801,111,0.05773221,-0.91993725,-0.38154584,0.28516188,0.02899502,-0.24103147,-25.51885414,27.76965714,-109.2078323,-0.08328352,-0.0214736,9.29947281,0.99670869,0.0007092,0.00024569,-0.08106399,0.00048853,-0.00241788,-0.00241224,0,0,0,0,1,1
1,1.19,116,0.18157849,0.98139662,-0.08763401,-0.92354316,1.25873387,0.70624661,-45.42531204,68.40105438,-91.31832886,0.82593542,3.66465425,-2.19655323,0.99927473,-0.00781543,-0.0318299,0.01938748,0.00294774,-0.00605183,0.00215026,0,0,0,0,1,1
2,1.1901,118,0.99316454,0.07461587,0.07982696,0.3746087,-0.31176481,0.12773982,-10.93247604,38.08827972,-68.31335449,1.88049746,-0.04928537,0.75040692,0.99984378,-0.01641216,0.00032257,-0.00655466,0.00304723,-0.00097422,-0.00081883,0,0,0,0,1,1
4,1.1901,112,0.05933223,-0.92430991,-0.38015425,0.46127456,0.02960091,-0.27494201,-25.51885414,27.53580856,-109.2078323,-0.0787237,-0.01881815,9.29842949,0.99670935,0.00067142,0.00021936,-0.08105493,-0.00086029,0.00046421,0.00119297,0,0,0,0,1,1
1,1.2,117,0.17738472,0.9809469,-0.09014598,-0.51445723,1.47202182,0.71097744,-45.42531204,68.40105438,-91.31832886,0.8182717,3.67311692,-2.2098279,0.99927056,-0.00775369,-0.03190409,0.01950159,0.00722656,-0.00335779,0.00140514,0,0,0,0,1,1
2,1.2001,119,0.99115479,0.07041246,0.08358867,-0.09047999,-0.18608592,0.09927894,-10.93247604,38.08827972,-68.31335449,1.87653279,-0.0496686,0.75338721,0.99984419,-0.01637759,0.00032571,-0.00658071,0.00477117,-0.00635371,-0.00266614,0,0,0,0,1,1
4,1.2001,113,0.06033609,-0.92714393,-0.37640277,0.44324639,0.20280698,-0.27244401,-25.51885414,27.53580856,-109.2078323,-0.07425407,-0.0155265,9.29900646,0.99670905,0.00063487,0.00018757,-0.08105998,-0.0017358,0.00493077,0.00244808,0,0,0,0,1,1
1,1.21,118,0.17233998,0.98148561,-0.09671018,-0.35561791,1.7346791,0.52913797,-45.57146835,68.16719818,-90.96755219,0.85785389,3.50856519,-2.2271533,0.99931014,-0.00807612,-0.03046116,0.01965383,0.01175283,0.00305792,0.00181445,0,0,0,0,1,1
2,1.2101,120,0.98949838,0.07452448,0.07905093,-0.25084284,-0.11791081,0.2066761,-11.02016926,37.24057388,-67.9041214,1.87475526,-0.0494299,0.75498688,0.99984437,-0.01636207,0.00032351,-0.00659463,0.00268703,-0.00061149,-0.00454384,0,0,0,0,1,1
4,1.2101,114,0.05740985,-0.92774957,-0.37669897,0.21332258,0.13335891,-0.309358,-25.31423569,27.4481144,-108.9155197,-0.07212136,-0.01215856,9.29893398,0.99670911,0.00061871,0.00015677,-0.08105937,0.00128844,0.00482752,0.00294766,0,0,0,0,1,1
1,1.22,119,0.16990833,0.97995108,-0.10019928,-0.06961606,1.99910283,0.01773108,-45.80532074,67.46565247,-90.35369873,0.8535409,3.51064181,-2.24684572,0.9993065,-0.0080441,-0.03047862,0.01982453,0.01184472,0.00615047,0.0001513,0,0,0,0,1,1
2,1.2201,121,0.98953873,0.07557444,0.0740347,0.16076995,-0.06997562,0.20280407,-10.69862556,37.97135162,-67.58258057,1.87488413,-0.04697174,0.75424826,0.99984443,-0.01636306,0.00030216,-0.00658783,-0.0013135,0.00254046,-0.00491106,0,0,0,0,1,1
4,1.2201,115,0.05844526,-0.92762601,-0.37676165,0.15957196,0.15099815,-0.36150724,-25.31423569,27.15580177,-109.0324478,-0.02174454,-0.00955752,9.29812622,0.99670988,0.00018237,0.00009851,-0.08105242,0.00030292,0.00448406,0.00291785,0,0,0,0,1,1
1,1.23,120,0.17343274,0.97909516,-0.10371131,0.56250453,1.72876382,-0.34295839,-45.80532074,68.13796997,-91.14293671,0.8559038,3.50888443,-2.26496649,0.99930364,-0.00806922,-0.03046161,0.01998308,0.0082636,0.00972369,0.00001087,0,0,0,0,1,1
2,1.2301,122,0.99088824,0.07684417,0.07459518,0.25019002,-0.08803366,0.20162739,-11.10786343,35.83747482,-67.75796509,1.87575328,-0.04497991,0.75193083,0.99984443,-0.01637052,0.00028506,-0.00656733,-0.00034125,0.00343104,-0.00346125,0,0,0,0,1,1
4,1.2301,116,0.05930849,-0.9271636,-0.37513006,-0.19372852,0.08118119,-0.38163731,-24.49576187,26.86348915,-108.8570557,-0.02371901,-0.00571877,9.29754257,0.9967103,0.00020226,0.00006652,-0.08104734,-0.00056845,0.0051883,0.00192284,0,0,0,0,1,1
1,1.24,121,0.17701817,0.97850782,-0.10503657,0.62836182,0.86088181,-0.54831618,-45.86378098,68.54721069,-90.9967804,0.86044186,3.50425434,-2.27477098,0.99930286,-0.00811061,-0.03041975,0.02006951,0.00458575,0.01102208,-0.00003292,0,0,0,0,1,1
2,1.2401,123,0.994259,0.08475495,0.0720989,-0.01680146,-0.00463768,0.45017371,-11.10786343,35.83747482,-67.75796509,1.87937605,-0.04473094,0.74179965,0.99984443,-0.01640209,0.00028413,-0.00647891,0.00056165,0.01158489,0.00001899,0,0,0,0,1,1
4,1.2401,117,0.05918057,-0.92467839,-0.37549463,-0.45711425,-0.05859503,-0.2980713,-25.37269783,27.59427071,-109.0324478,-0.02837794,-0.00318482,9.29613781,0.99671125,0.00024458,0.00004777,-0.08103511,-0.00051448,0.00396949,-0.00024187,0,0,0,0,1,1
1,1.25,122,0.17859882,0.97866166,-0.09969151,0.64198488,-0.30335766,-0.34900275,-45.86378098,68.54721069,-90.9967804,0.86725736,3.50050235,-2.27288103,0.9993037,-0.0081689,-0.03038597,0.02005461,0.00290597,0.00558124,-0.00011929,0,0,0,0,1,1
2,1.2501,124,0.99205637,0.07631835,0.07670476,-0.1064567,-0.17693828,0.48406494,-10.78631973,37.97135162,-67.64103699,1.87686145,-0.04171318,0.74291205,0.99984479,-0.01637998,0.00025778,-0.00648818,0.0012442,0.0019645,-0.00212949,0,0,0,0,1,1
4,1.2501,118,0.05732692,-0.92251635,-0.37888083,-0.75655377,-0.19802292,-0.26682732,-25.16807938,26.74656487,-108.6232071,-0.03608174,-0.00146899,9.29374218,0.99671298,0.0003128,0.00003829,-0.08101428,0.00132929,0.00013138,-0.00106469,0,0,0,0,1,1
1,1.26,123,0.17969321,0.97940737,-0.09670492,0.61733484,-1.32914007,-0.02322574,-45.80532074,67.17333984,-90.93832397,0.89695269,3.48393822,-2.26021433,0.99930823,-0.00842169,-0.03023726,0.01995098,0.00177361,0.00231018,0.00050968,0,0,0,0,1,1
2,1.2601,125,0.99033689,0.06295136,0.08359658,-1.25162172,0.18206327,0.32586372,-10.58170128,37.59134674,-67.58258057,1.86426771,-0.04296633,0.75741816,0.9998458,-0.01627021,0.00026737,-0.00661489,0.0017162,-0.0129088,-0.00381504,0,0,0,0,1,1
4,1.2601,119,0.0590097,-0.92029214,-0.38197169,-1.00347805,-0.23327042,-0.25115958,-25.16807938,26.74656487,-108.6232071,-0.04627693,-0.0000324,9.29122543,0.99671465,0.00040249,0.00003299,-0.08099239,-0.00037584,-0.00340439,-0.00184909,0,0,0,0,1,1
1,1.27,124,0.17938986,0.98013341,-0.09263387,0.16862664,-1.35196209,0.22151567,-45.83454895,69.33644867,-91.49371338,0.90109235,3.48484588,-2.24682689,0.99930996,-0.00845441,-0.03024544,0.01983538,0.00192613,-0.00219159,0.00086015,0,0,0,0,1,1
2,1.2701,126,0.99104273,0.05363465,0.08441874,-0.98383659,0.14737739,0.21770318,-10.93247604,37.53288651,-67.37796021,1.84828997,-0.04247538,0.76824409,0.99984741,-0.01613079,0.00026248,-0.00670925,-0.00170656,-0.0213699,-0.00346039,0,0,0,0,1,1
4,1.2701,120,0.05723569,-0.92003947,-0.38293642,-0.89772469,-0.25025842,-0.26828763,-24.72961044,26.19117165,-108.5939789,-0.10396983,0.00106759,9.28902531,0.9967159,0.00090508,0.00006418,-0.08097324,0.0014257,-0.00402169,-0.00182073,0,0,0,0,1,1
1,1.28,125,0.17732362,0.9801808,-0.09191538,-0.05742584,-0.52062839,0.3402546,-46.12686157,68.72259521,-91.58140564,0.90151334,3.48773241,-2.24128771,0.99931014,-0.00845711,-0.03027095,0.01978737,0.00401628,-0.0029384,0.00060224,0,0,0,0,1,1
2,1.2801,127,0.99227095,0.05453195,0.08539829,-0.21478797,0.08935654,0.17377466,-9.70476437,37.26980209,-67.29026794,1.83406699,-0.04202121,0.77187902,0.99984914,-0.01600667,0.00025884,-0.00674087,-0.00054353,-0.02072848,-0.00211857,0,0,0,0,1,1
4,1.2801,121,0.05650649,-0.92010552,-0.38263234,-0.75811768,-0.26635194,-0.38954556,-25.13884735,24.4080677,-108.4478226,-0.11178274,0.00365386,9.28552818,0.99671835,0.00097487,0.00004718,-0.08094285,0.00218329,-0.00292564,-0.00191661,0,0,0,0,1,1
1,1.29,126,0.17963275,0.9788937,-0.09180145,-0.66022325,0.48028952,0.20860468,-46.33148193,67.49488068,-90.26600647,0.89416081,3.49025559,-2.24503946,0.9993093,-0.00839441,-0.03029394,0.0198183,0.0016246,-0.00287643,-0.00039827,0,0,0,0,1,1
2,1.2901,128,0.99230194,0.06926878,0.08180824,0.6794129,-0.09122364,0.16200802,-9.70476437,37.26980209,-67.29026794,1.83047593,-0.04189918,0.76449734,0.99985015,-0.01597531,0.00025902,-0.00667644,0.00269438,-0.00577178,-0.00176332,0,0,0,0,1,1
4,1.2901,122,0.05633941,-0.91917461,-0.3800309,-0.3859953,-0.28367385,-0.3010875,-25.63577843,27.27272606,-109.061676,-0.11585091,0.00535506,9.28199387,0.99672073,0.00101146,0.00003522,-0.08091211,0.0022771,-0.00076515,-0.0037716,0,0,0,0,1,1
1,1.3,127,0.18115108,0.97538561,-0.0943904,-0.44475296,0.62218386,-0.22027592,-45.57146835,68.60566711,-90.79216766,0.88862866,3.48865247,-2.25086784,0.99930918,-0.00834743,-0.0302805,0.01986757,-0.00028485,0.00011536,-0.00348094,0,0,0,0,1,1
2,1.3001,129,0.99204087,0.07562296,0.07396554,1.42970502,-0.11047918,-0.07351456,-10.52323914,37.21134186,-68.10874176,1.83527434,-0.04026532,0.74794298,0.99985045,-0.01601705,0.0002468,-0.00653178,-0.00148499,0.00334811,-0.00244954,0,0,0,0,1,1
4,1.3001,123,0.05549946,-0.92004853,-0.37821335,-0.13782507,-0.14531147,-0.21090373,-25.40192986,27.38965225,-108.564743,-0.11736697,0.00675105,9.27993011,0.99672222,0.00102563,0.00002413,-0.08089417,0.00315204,0.00128013,-0.00370231,0,0,0,0,1,1
1,1.31,128,0.18692444,0.97575313,-0.09769262,0.02853595,0.14141926,-0.51829582,-45.57146835,68.60566711,-90.79216766,0.94902533,3.580477,-2.25308371,0.99927938,-0.00889025,-0.03107061,0.01990899,-0.00558725,0.00314214,-0.00212888,0,0,0,0,1,1
2,1.3101,130,0.99126136,0.07713085,0.07581091,1.30418146,-0.28207621,-0.0567059,-10.99093819,37.82519531,-68.31335449,1.8406924,-0.03828547,0.73397976,0.99985039,-0.01606419,0.00023117,-0.00640967,0.00094945,0.00377857,-0.00298783,0,0,0,0,1,1
4,1.3101,124,0.05435108,-0.92109603,-0.37700015,0.03985163,-0.07637659,-0.12209602,-25.40192986,27.38965225,-108.564743,-0.11703521,0.00758879,9.27873802,0.99672306,0.00102333,0.0000166,-0.08088382,0.00434471,0.00280526,-0.00326189,0,0,0,0,1,1
1,1.32,129,0.19239379,0.97447425,-0.09792745,0.14299625,-0.51775432,-0.28389916,-45.04530716,68.19643402,-91.20140076,0.95133597,3.57715154,-2.24840307,0.99928093,-0.00890857,-0.03104157,0.01986858,-0.00997994,0.00266472,-0.00262657,0,0,0,0,1,1
2,1.3201,131,0.99182367,0.07974561,0.07675909,0.6783011,-0.20813179,-0.01413301,-10.66939449,37.88365936,-67.61180878,1.8455863,-0.03775217,0.7286213,0.99984998,-0.01610684,0.000227,-0.00636286,0.00288715,0.00562825,-0.00222385,0,0,0,0,1,1
4,1.3201,125,0.0573489,-0.92232215,-0.37549263,0.25281191,0.00994814,-0.03285864,-25.7234726,27.12657166,-109.1786041,-0.05316539,-0.00308627,9.27735043,0.99672443,0.00046026,0.00006437,-0.08087169,0.00134683,0.00436441,-0.00252489,0,0,0,0,1,1
1,1.33,130,0.19634493,0.97778159,-0.09768012,0.56746531,-0.30467278,0.1704635,-45.98070526,68.83952332,-91.55217743,0.95751858,3.57856607,-2.24590659,0.99928045,-0.00896205,-0.03105303,0.01984858,-0.01351422,0.00207063,0.00110531,0,0,0,0,1,1
2,1.3301,132,0.99100268,0.0695755,0.0779374,0.53574193,-0.26153103,0.12659481,-10.23092651,36.86056519,-67.87489319,1.84357536,-0.033988,0.72662938,0.99985051,-0.01608909,0.00019455,-0.00634494,-0.0003807,-0.00404105,-0.00338478,0,0,0,0,1,1
4,1.3301,126,0.05965759,-0.92375046,-0.37688792,0.07558728,-0.04193902,-0.08664092,-25.63577843,27.74042702,-109.3832169,-0.05246582,-0.0024426,9.27659035,0.99672502,0.00045463,0.00005827,-0.08086508,-0.00098371,0.00278923,-0.00054266,0,0,0,0,1,1
1,1.34,131,0.19725783,0.98162007,-0.09283172,0.59092146,0.51199025,0.52894759,-45.39608383,68.63490295,-91.2306366,0.96248037,3.5843389,-2.25118589,0.99927759,-0.00900772,-0.0311021,0.01989636,-0.01392546,-0.0031788,0.00463327,0,0,0,0,1,1
2,1.3401,133,0.9875989,0.06479464,0.08412056,-0.05364539,-0.01704444,0.24069409,-10.23092651,36.86056519,-67.87489319,1.83563638,-0.03536235,0.72259903,0.99985176,-0.01601989,0.00020754,-0.00630996,0.0034085,-0.01094996,-0.00642729,0,0,0,0,1,1
4,1.3401,127,0.06147489,-0.92499042,-0.37882692,-0.13742287,0.01018937,-0.15642777,-25.460392,27.36042023,-109.0324478,-0.05386487,-0.00095781,9.27617168,0.99672532,0.00046784,0.00004634,-0.08086146,-0.00266966,0.00146965,0.0014439,0,0,0,0,1,1
1,1.35,132,0.18966097,0.98015708,-0.09003864,-0.09838076,1.11192429,0.76378936,-45.13300323,68.95644379,-91.14293671,0.95958906,3.59302044,-2.26133513,0.99927372,-0.00898674,-0.03117752,0.01998466,-0.00645559,-0.00584481,0.00205104,0,0,0,0,1,1
2,1.3501,134,0.99018133,0.07195319,0.08319189,0.16079529,-0.0178891,0.18594,-10.43554497,37.85442734,-67.96258545,1.83195472,-0.03741884,0.72103328,0.99985242,-0.01598787,0.00022591,-0.00629658,0.0054154,-0.004009,-0.00362775,0,0,0,0,1,1
4,1.3501,128,0.06160501,-0.92301774,-0.37713441,-0.42026672,0.02712382,-0.17492336,-25.69424057,27.74042702,-109.4709168,-0.05810409,0.00076449,9.27600479,0.99672538,0.00050593,0.00003435,-0.08086,-0.00291565,0.00234478,-0.00101155,0,0,0,0,1,1
1,1.36,133,0.18030189,0.98101205,-0.09025256,-0.08267616,1.32069349,0.68484628,-45.13300323,68.95644379,-91.14293671,0.9140256,3.53603458,-2.27393794,0.99929053,-0.0085831,-0.03068757,0.02007851,0.00280439,-0.00545543,0.00176812,0,0,0,0,1,1
2,1.3601,135,0.99163783,0.07629485,0.07852491,0.80428576,-0.14295876,0.10761975,-10.75708866,37.06518555,-68.0210495,1.83367777,-0.03722901,0.71231937,0.99985266,-0.01600288,0.00022537,-0.00622052,0.00298758,0.00194899,-0.00240846,0,0,0,0,1,1
4,1.3601,129,0.06185343,-0.92212272,-0.376228,-0.57917136,0.00950317,-0.17595261,-24.78807259,26.86348915,-109.2955246,-0.06392287,0.00242694,9.27576447,0.99672556,0.00055772,0.000024,-0.08085793,-0.00320198,0.00293504,-0.0021669,0,0,0,0,1,1
1,1.37,134,0.17391956,0.97801214,-0.09420544,-0.46822447,0.76033896,0.45961031,-45.74685669,68.693367,-91.46448517,0.9080987,3.54133391,-2.28044772,0.99928844,-0.00853407,-0.03073433,0.02013403,0.00808061,-0.00063873,-0.00171361,0,0,0,0,1,1
2,1.3701,136,0.99309111,0.07749492,0.07532474,0.87595052,-0.05705474,0.09038195,-10.75708866,37.88365936,-67.69950104,1.83669162,-0.03654883,0.70207936,0.99985272,-0.01602912,0.00022071,-0.00613108,0.00051897,0.00438263,-0.00119708,0,0,0,0,1,1
4,1.3701,130,0.06007468,-0.91999042,-0.37749657,-0.42050862,-0.31880191,-0.24962494,-24.78807259,26.86348915,-109.2955246,-0.05395626,0.01003492,9.27204514,0.99672818,0.00047639,-0.00004923,-0.0808256,-0.00146025,0.00098683,-0.00376011,0,0,0,0,1,1
1,1.38,135,0.17221701,0.97517586,-0.09680007,-0.28006405,0.2416272,0.0066744,-45.51300812,68.78105927,-91.28909302,0.90489912,3.54162955,-2.28249598,0.99928814,-0.00850677,-0.03073732,0.02015105,0.00949166,0.00226135,-0.00451792,0,0,0,0,1,1
2,1.3801,137,0.99292707,0.08157931,0.07648043,0.59043109,-0.10989087,0.26761249,-11.04940033,37.59134674,-68.13796997,1.83939278,-0.03566499,0.69931597,0.99985254,-0.01605264,0.00021324,-0.00610685,0.00337527,0.0074934,-0.00107311,0,0,0,0,1,1
4,1.3801,131,0.05740253,-0.92031628,-0.37615979,-0.15523823,-0.49154636,-0.25092384,-25.63577843,27.38965225,-108.6816711,-0.05584603,0.0104884,9.26664543,0.996732,0.00049315,-0.00005186,-0.08077864,0.00129142,0.00220281,-0.00412275,0,0,0,0,1,1
1,1.39,136,0.17367572,0.97700882,-0.09998063,0.1166192,0.07258756,-0.10633251,-45.30838776,68.78105927,-91.31832886,0.90590805,3.54064083,-2.28345942,0.99928814,-0.00851565,-0.03072845,0.02015966,0.00828305,0.00529071,-0.00227457,0,0,0,0,1,1
2,1.3901,138,0.99217391,0.07775232,0.07478648,0.4473092,-0.26521215,0.33723524,-11.04940033,37.59134674,-68.13796997,1.84076154,-0.03180117,0.69491023,0.9998526,-0.01606437,0.00018007,-0.00606787,0.00030212,0.00476221,-0.00214415,0,0,0,0,1,1
4,1.3901,132,0.05691474,-0.92393494,-0.37700328,-0.17366859,-0.47384113,-0.30290174,-25.7234726,27.36042023,-108.7401352,-0.05789162,0.01148574,9.26121998,0.99673575,0.00051164,-0.00005912,-0.08073145,0.00200288,0.00282138,-0.00048967,0,0,0,0,1,1
1,1.4,137,0.17750539,0.98048198,-0.09870082,0.51835668,0.84179121,-0.04653193,-45.57146835,68.83952332,-90.9967804,0.90947759,3.54099393,-2.29246211,0.99928623,-0.00854926,-0.03073023,0.02023914,0.00488107,0.00368803,0.00152385,0,0,0,0,1,1
2,1.4001,139,0.9903388,0.06980404,0.07933796,-0.21365526,0.01478059,0.43504691,-10.55247021,37.21134186,-67.87489319,1.83428383,-0.03089006,0.69547254,0.99985343,-0.0160078,0.00017238,-0.00607264,0.00111487,-0.00431589,-0.00391286,0,0,0,0,1,1
4,1.4001,133,0.05588488,-0.92376888,-0.37603322,-0.1554091,-0.52605605,-0.26882416,-25.48962212,27.4481144,-108.9155197,-0.05979376,0.0119713,9.25543785,0.99673986,0.00052853,-0.00006203,-0.08068115,0.00301369,0.00369783,-0.00107101,0,0,0,0,1,1
1,1.41,138,0.1837045,0.98001206,-0.09607115,0.47315264,1.51882315,0.09976482,-45.57146835,68.83952332,-90.9967804,0.91035396,3.56279945,-2.30839252,0.99927741,-0.00856496,-0.03091904,0.02037969,-0.00124317,0.00106,0.0016072,0,0,0,0,1,1
2,1.4101,140,0.98893362,0.06536724,0.08206304,-0.55329877,0.03401162,0.49136725,-10.61093235,37.38673019,-68.19643402,1.82403576,-0.03044055,0.69888681,0.99985468,-0.01591836,0.00016853,-0.00610235,0.00175451,-0.00934236,-0.00526623,0,0,0,0,1,1
4,1.4101,134,0.05283623,-0.92455465,-0.37645003,-0.40431526,-0.31794041,-0.35384053,-25.75270271,27.47734642,-108.564743,-0.06407483,0.01403366,9.25139332,0.99674267,0.00056721,-0.00007697,-0.080646,0.00613552,0.00367163,-0.00036649,0,0,0,0,1,1
1,1.42,139,0.18443348,0.97828364,-0.09530399,0.48471278,1.88360143,0.40714583,-45.80532074,69.16106415,-90.5875473,0.91175312,3.56867456,-2.32722902,0.99927235,-0.00858327,-0.03096861,0.02054471,-0.00185099,0.0004266,-0.00005518,0,0,0,0,1,1
2,1.4201,141,0.99117196,0.06380747,0.07899881,-0.08835548,-0.03883036,0.46801963,-10.75708866,38.11750793,-68.10874176,1.81472278,-0.02705178,0.69894195,0.99985605,-0.01583692,0.00013945,-0.00610235,-0.00185322,-0.00921714,-0.00339128,0,0,0,0,1,1
4,1.4201,135,0.04959557,-0.92423552,-0.37801686,-0.51111996,-0.26575226,-0.40572995,-25.75270271,27.47734642,-108.564743,-0.04709182,-0.10540935,9.24588203,0.99674624,0.00033548,0.00095,-0.08059757,0.00889978,0.00209642,-0.00025758,0,0,0,0,1,1
1,1.43,140,0.18376592,0.98193359,-0.09380035,0.52392423,1.53637612,0.58437711,-45.86378098,68.60566711,-91.14293671,0.91421717,3.57598066,-2.34250879,0.99926746,-0.00861017,-0.03103074,0.02067908,-0.00063865,-0.00140149,0.00336368,0,0,0,0,1,1
2,1.4301,142,0.99168003,0.06825616,0.08009706,0.34101486,0.0269281,0.42921111,-10.58170128,37.82519531,-67.75796509,1.80764282,-0.02544296,0.69841504,0.99985701,-0.01577506,0.00012586,-0.00609753,0.0010639,-0.00556593,-0.00259347,0,0,0,0,1,1
4,1.4301,136,0.04918025,-0.92432058,-0.37632176,-0.45922768,-0.21312927,-0.47423202,-25.48962212,25.13884735,-109.0324478,-0.05189746,-0.10183416,9.24238586,0.99674881,0.00037982,0.00092227,-0.08056715,0.00773822,0.00348669,-0.0008446,0,0,0,0,1,1
1,1.44,141,0.18090971,0.98221302,-0.09235474,-0.01195959,0.10540812,0.39749914,-45.65916443,68.78105927,-90.11985016,0.91396737,3.58003807,-2.34316039,0.99926621,-0.00860888,-0.03106611,0.02068496,0.00231573,-0.00288443,0.00318526,0,0,0,0,1,1
2,1.4401,143,0.99229729,0.07675906,0.07574064,0.46595004,0.04451662,0.35816145,-10.58170128,37.82519531,-67.75796509,1.80683839,-0.02424377,0.69600564,0.99985731,-0.01576798,0.00011577,-0.00607634,0.00085873,0.00404333,-0.00199811,0,0,0,0,1,1
4,1.4401,137,0.04991503,-0.92209554,-0.37529626,-0.56534898,-0.02290228,-0.45452029,-25.78193474,27.91581345,-108.5939789,-0.05765984,-0.09771638,9.24078083,0.99674988,0.00043285,0.0008905,-0.08055316,0.00693235,0.00368234,-0.00324509,0,0,0,0,1,1
1,1.45,142,0.17914639,0.97912008,-0.09428637,-0.33203831,-1.32289207,0.03609926,-45.77608871,68.13796997,-91.43524933,0.91312438,3.57911992,-2.32962561,0.99926901,-0.0085977,-0.03105927,0.02056664,0.00372487,-0.00069393,0.00006633,0,0,0,0,1,1
4,1.4501,138,0.0518075,-0.92029011,-0.37439382,-0.86660206,0.46160653,-0.44874206,-24.4080677,26.80502701,-109.4416809,-0.06617307,-0.09180962,9.24384689,0.99674773,0.00051103,0.00084512,-0.08057979,0.00501289,0.00396232,-0.00514317,0,0,0,0,1,1
1,1.46,143,0.18030056,0.97782022,-0.09702767,-0.1404129,-2.22405791,-0.17143483,-45.77608871,68.13796997,-91.43524933,0.95116735,3.57976198,-2.30552673,0.9992702,-0.00892303,-0.03105992,0.02036685,0.00241957,0.00196521,-0.00086004,0,0,0,0,1,1
4,1.4601,139,0.05619752,-0.92131275,-0.37428093,-0.59953618,0.47818214,-0.29074708,-25.34346581,26.74656487,-109.7047653,-0.07198046,-0.08730058,9.24750805,0.99674517,0.00056469,0.00081,-0.08061163,0.00076923,0.00457379,-0.00398352,0,0,0,0,1,1
1,1.47,144,0.18212339,0.97687578,-0.09903323,-0.29023978,-1.65228057,-0.28768501,-45.83454895,69.01490784,-90.5875473,0.95127738,3.57529545,-2.28909492,0.99927425,-0.00891876,-0.03102223,0.02022329,0.00049302,0.00355344,-0.00140707,0,0,0,0,1,1
2,1.4701,144,0.98995984,0.06712539,0.07850937,-0.71489352,0.09020193,0.35395089,-10.66939449,37.76673508,-67.9041214,1.79741085,-0.0155343,0.70710039,0.99985802,-0.01568526,0.00003876,-0.00617194,-0.00049884,-0.00571601,-0.00450411,0,0,0,0,1,1
4,1.4701,140,0.059136,-0.92525619,-0.37313437,-0.52840668,0.47803786,-0.25563741,-25.75270271,26.42502213,-109.2370606,0.01076222,-0.07549148,9.24665737,0.996746,-0.00014671,0.00064907,-0.08060479,-0.00186686,0.00683348,-0.00060341,0,0,0,0,1,1
1,1.48,145,0.18279159,0.9763636,-0.10128064,-0.45238662,-0.28166401,-0.01123778,-45.45454407,68.60566711,-90.90908813,0.94733477,3.57489991,-2.28577209,0.99927533,-0.00888342,-0.03101974,0.02019322,-0.00024749,0.00587783,-0.00165642,0,0,0,0,1,1
2,1.4801,145,0.98774123,0.06256703,0.07717323,-0.30318379,0.10291255,0.38461778,-10.93247604,37.97135162,-67.99181366,1.78794301,-0.01264993,0.71131623,0.99985909,-0.01560249,0.00001353,-0.00620833,-0.00342078,-0.00906557,-0.00703939,0,0,0,0,1,1
4,1.4801,141,0.05925397,-0.92422241,-0.37349841,-0.68645704,0.63296592,-0.16716525,-25.75270271,26.42502213,-109.2370606,0.00420401,-0.07154389,9.25227261,0.99674201,-0.00008692,0.00061935,-0.08065359,-0.00185747,0.00506675,-0.00141423,0,0,0,0,1,1
1,1.49,146,0.18662094,0.97804469,-0.09911674,-0.52436978,1.10751486,0.10952253,-45.57146835,67.23180389,-91.05524445,0.94016361,3.57704973,-2.29599881,0.99927348,-0.00882402,-0.03103896,0.0202806,-0.0038404,0.00369297,0.00029761,0,0,0,0,1,1
2,1.4901,146,0.9893266,0.06021477,0.07846455,0.37621173,-0.0056235,0.32358289,-10.93247604,37.97135162,-67.99181366,1.77860117,-0.00869825,0.71002173,0.99986041,-0.01552077,-0.00002027,-0.0061965,-0.00339404,-0.01158121,-0.00545477,0,0,0,0,1,1
4,1.4901,142,0.05924191,-0.9252218,-0.37555489,-0.63186258,0.5629406,-0.06364054,-25.54808426,27.68196487,-109.4709168,-0.0018121,-0.06881907,9.25760174,0.99673831,-0.0000327,0.00059988,-0.08069991,-0.00169275,0.00365169,0.00028715,0,0,0,0,1,1
1,1.5,147,0.18807985,0.97887802,-0.09764294,-0.37071785,1.68270147,0.14678065,-45.24992752,67.17333984,-91.17217255,0.93347311,3.58012605,-2.31205773,0.99927032,-0.00877056,-0.03106574,0.02041903,-0.00515258,0.00227854,0.00118232,0,0,0,0,1,1
2,1.5001,147,0.99326611,0.06831221,0.07984952,0.3582119,0.06461465,0.27217188,-9.70476437,38.14673996,-67.69950104,1.77318561,-0.0080712,0.70982987,0.99986112,-0.01547348,-0.00002542,-0.00619474,0.00102166,-0.00478914,-0.00105497,0,0,0,0,1,1
4,1.5001,143,0.05971928,-0.92345041,-0.37670678,-0.43576604,0.38923579,0.03901927,-25.25577354,25.05115509,-109.0324478,-0.00593309,-0.06770309,9.26159859,0.99673545,0.00000391,0.00059307,-0.08073467,-0.00220892,0.00200354,-0.00088452,0,0,0,0,1,1
1,1.51,148,0.18656,0.97647965,-0.09719902,-0.06234247,1.37353384,0.13308682,-45.24992752,67.17333984,-91.17217255,0.9519887,3.62391996,-2.325948,0.99925435,-0.00894344,-0.03144325,0.0205481,-0.00370945,0.00202036,-0.00139577,0,0,0,0,1,1
2,1.5101,148,0.99231362,0.07769915,0.07848368,0.48282883,0.01400502,0.16536699,-10.75708866,37.82519531,-68.16719818,1.77438831,-0.00926946,0.7073828,0.99986112,-0.01548404,-0.0000147,-0.00617355,0.00400038,0.0042579,-0.00171014,0,0,0,0,1,1
4,1.5101,144,0.05714795,-0.92270583,-0.37833577,-0.43426251,0.37108335,0.14306213,-25.48962212,27.21426392,-108.6232071,-0.01003822,-0.06761707,9.26582527,0.99673247,0.00003965,0.00059522,-0.08077139,0.00036452,0.00027911,-0.0011062,0,0,0,0,1,1
1,1.52,149,0.18619546,0.97735482,-0.09821906,0.26728192,0.7517426,0.22883807,-45.65916443,69.01490784,-91.25986481,0.95327544,3.62692738,-2.33349252,0.99925208,-0.00895726,-0.03146866,0.02061444,-0.0026463,0.00268245,-0.00045093,0,0,0,0,1,1
2,1.5201,149,0.99379086,0.07567676,0.08244836,-0.05400992,0.05415504,0.13667174,-11.04940033,38.14673996,-68.13796997,1.77310443,-0.01266087,0.70940357,0.99986112,-0.01547302,0.00001469,-0.00619164,0.00646514,0.00068916,0.00002884,0,0,0,0,1,1
4,1.5201,145,0.05422207,-0.92301077,-0.37851116,-0.50300789,0.28336531,0.26311243,-24.70038033,25.86962891,-108.7401352,-0.02781987,-0.10513441,9.27127743,0.99672836,0.00016783,0.00093409,-0.08081863,0.00313477,0.00037032,-0.00092959,0,0,0,0,1,1
1,1.53,150,0.18540488,0.97476679,-0.0974106,0.27478677,0.1610321,0.22438411,-45.39608383,69.1026001,-91.25986481,0.95571774,3.6293242,-2.3352046,0.99925083,-0.00897945,-0.03148899,0.02063021,-0.00213412,0.00205002,-0.00316831,0,0,0,0,1,1
2,1.5301,150,0.99025607,0.07351851,0.08497436,-0.98475456,-0.03997994,0.11064015,-10.84478188,37.38673019,-68.28412628,1.7697041,-0.01627526,0.72243285,0.99986094,-0.01544355,0.00004465,-0.00630581,0.00806426,-0.00230589,-0.00335695,0,0,0,0,1,1
4,1.5301,146,0.05484331,-0.92375875,-0.37687817,-0.83621681,0.33332971,0.43609557,-24.70038033,25.86962891,-108.7401352,-0.03589942,-0.10790079,9.27650452,0.99672472,0.00023611,0.00096386,-0.08086403,0.00200367,0.00245925,-0.00082013,0,0,0,0,1,1
1,1.54,151,0.18613437,0.97447187,-0.09450109,0.42295927,-0.23691531,0.24324131,-45.95147705,68.98567963,-91.34755707,0.96035105,3.63152695,-2.33314514,0.99925029,-0.00901967,-0.03150752,0.02061367,-0.00288425,-0.00089175,-0.00360051,0,0,0,0,1,1
2,1.5401,151,0.98973179,0.06757309,0.0815488,-1.23529184,0.13656561,0.02803333,-10.84478188,37.38673019,-68.28412628,1.76439798,-0.01945923,0.73239851,0.999861,-0.01539743,0.00007138,-0.00639319,0.00238882,-0.00606287,-0.00445442,0,0,0,0,1,1
4,1.5401,147,0.05241789,-0.92312562,-0.37487704,-0.78367788,0.5413155,0.43945298,-24.52499199,27.30195808,-108.6524429,-0.04333853,-0.10990796,9.28363228,0.9967196,0.00029934,0.00098659,-0.08092595,0.0043042,0.00420209,-0.00230534,0,0,0,0,1,1
1,1.55,152,0.18358292,0.97829199,-0.09227638,0.49938551,-0.67054129,0.36512214,-45.71762466,68.78105927,-91.43524933,0.96655524,3.63452125,-2.32675052,0.99925011,-0.00907254,-0.03153302,0.02055982,0.00013379,-0.00352133,-0.00030289,0,0,0,0,1,1
2,1.5501,152,0.9908601,0.06154297,0.07914653,-1.03844953,0.15199672,0.02609335,-11.02016926,37.73750305,-67.72873688,1.75658858,-0.01959717,0.74244553,0.99986154,-0.01532931,0.00007168,-0.00648087,-0.00252545,-0.01029567,-0.00382064,0,0,0,0,1,1
4,1.5501,148,0.0524943,-0.92309827,-0.37251747,-0.39648706,0.59470302,0.35519463,-25.51885414,25.08038521,-108.9739838,-0.04690566,-0.11093161,9.29070282,0.99671465,0.00032958,0.00099803,-0.08098742,0.00414705,0.00646007,-0.00321991,0,0,0,0,1,1
1,1.56,153,0.18212491,0.98041415,-0.09104062,0.00432439,-1.19767463,0.43600819,-45.57146835,68.83952332,-91.08448029,0.92033309,3.60337853,-2.31734252,0.99926394,-0.00866146,-0.03127045,0.02046305,0.0017331,-0.00478192,0.00151353,0,0,0,0,1,1
2,1.5601,153,0.99122083,0.06730366,0.07408133,-0.55440617,0.16067414,0.21323095,-10.84478188,37.53288651,-68.28412628,1.75177705,-0.01748661,0.7487151,0.99986178,-0.01528721,0.0000527,-0.00653529,-0.00454498,-0.00277741,-0.00366798,0,0,0,0,1,1
4,1.5601,149,0.05451087,-0.92280507,-0.37161413,0.39312136,0.56264246,0.42262957,-24.61268616,26.60040855,-108.9447556,-0.04260273,-0.11270048,9.29726887,0.99670994,0.00029085,0.00101039,-0.08104456,0.00207337,0.00716582,-0.00371432,0,0,0,0,1,1
1,1.57,154,0.18370491,0.98044133,-0.09254853,-0.36432755,-1.79280639,0.46884143,-45.57146835,68.83952332,-91.08448029,0.92009181,3.60631466,-2.29869866,0.99926651,-0.00865478,-0.03129751,0.0203006,-0.00021039,-0.00264956,0.00181686,0,0,0,0,1,1
2,1.5701,154,0.99141967,0.07775966,0.07024199,0.30439454,0.23972936,0.16995014,-11.25401878,37.09441757,-67.93334961,1.75449443,-0.01705848,0.74387473,0.99986178,-0.01531089,0.00004946,-0.006493,-0.00338761,0.00829985,-0.00335359,0,0,0,0,1,1
4,1.5701,150,0.05536794,-0.92275167,-0.37101084,0.4444879,0.63286537,0.31961876,-25.51885414,27.30195808,-108.9447556,0.0564643,-0.11812124,9.29905605,0.99670857,-0.00057468,0.00098747,-0.08106098,0.0011658,0.00720886,-0.00394188,0,0,0,0,1,1
1,1.58,155,0.18516338,0.98142612,-0.09628677,-0.42740601,-2.41900396,0.3598296,-45.27915955,67.69950104,-91.49371338,0.9203729,3.60755444,-2.27388263,0.9992705,-0.00865066,-0.03131014,0.02008435,-0.00147175,0.00099104,0.00326835,0,0,0,0,1,1
2,1.5801,155,0.99234295,0.08941333,0.07660481,0.09064605,0.08093797,0.43254632,-11.25401878,37.09441757,-67.93334961,1.75976527,-0.02041763,0.73993593,0.99986124,-0.01535707,0.000079,-0.00645909,0.00727569,0.01588099,-0.00133979,0,0,0,0,1,1
4,1.5801,151,0.05646823,-0.92179209,-0.37028769,0.54915291,0.66840148,0.23373169,-25.22654152,27.38965225,-109.061676,0.06234657,-0.1177541,9.30579662,0.99670368,-0.00062564,0.00098008,-0.08111963,-0.00006527,0.00617928,-0.00503704,0,0,0,0,1,1
1,1.59,156,0.18333927,0.97916836,-0.10045017,-0.5867663,-2.49023461,0.20273741,-45.54224014,69.07337189,-91.05524445,0.91918349,3.60716081,-2.24832845,0.99927521,-0.00863324,-0.03130884,0.01986116,0.00010849,0.00533362,0.001146,0,0,0,0,1,1
2,1.5901,156,0.99198711,0.09031146,0.07813594,-0.67747515,0.16968133,0.65160239,-10.66939449,37.38673019,-68.05027771,1.76187789,-0.02469424,0.74417359,0.99986076,-0.01537575,0.00011562,-0.00649664,0.00899499,0.01594957,-0.00151343,0,0,0,0,1,1
4,1.5901,152,0.05750133,-0.92118102,-0.37059274,0.51394302,0.61636382,0.23278528,-25.22654152,27.38965225,-109.061676,0.06784678,-0.11757554,9.31206894,0.99669927,-0.00067341,0.00097459,-0.08117424,-0.00112145,0.00556973,-0.00542498,0,0,0,0,1,1
1,1.6,157,0.17963144,0.9760831,-0.09935935,-0.52804053,-1.58619106,0.46037334,-45.01607513,68.92721558,-91.43524933,0.91695696,3.61020398,-2.23154449,0.99927741,-0.00860975,-0.03133703,0.01971439,0.00343473,0.00453168,-0.00244158,0,0,0,0,1,1
2,1.6001,157,0.99143064,0.07804025,0.0849799,-1.82169414,0.24613604,0.80465734,-10.34785175,37.88365936,-68.16719818,1.75296748,-0.02955504,0.76099026,0.99986094,-0.0152983,0.0001563,-0.00664401,0.00970659,0.00198881,-0.00199446,0,0,0,0,1,1
4,1.6001,153,0.05943861,-0.92519087,-0.37343758,0.1058142,0.84164476,0.1298728,-25.31423569,27.24349594,-109.2662964,0.06936331,-0.11559315,9.32027626,0.99669343,-0.00068526,0.00095623,-0.08124563,-0.00275205,0.00440427,-0.00052998,0,0,0,0,1,1
1,1.61,158,0.18169822,0.97637868,-0.09510133,-0.27799338,-0.17587671,0.57946742,-45.36685181,69.33644867,-91.1137085,0.91182792,3.58608198,-2.22875166,0.99928486,-0.00856022,-0.03112777,0.01968708,0.00132851,0.00031156,-0.00224266,0,0,0,0,1,1
2,1.6101,158,0.98940665,0.05941661,0.08293858,-1.7493813,0.4335869,0.87599689,-10.52323914,37.94212341,-68.4595108,1.73366034,-0.02996581,0.7777952,0.99986249,-0.01512988,0.00015878,-0.00679067,-0.00011435,-0.01356263,-0.00502739,0,0,0,0,1,1
4,1.6101,154,0.06076946,-0.9277004,-0.37549564,0.08649272,0.70412529,-0.01134815,-24.72961044,27.4481144,-109.1201401,0.07059479,-0.11282368,9.32668591,0.99668896,-0.00069406,0.00093123,-0.08130139,-0.0038546,0.00342767,0.00264573,0,0,0,0,1,1
1,1.62,159,0.1812125,0.97763026,-0.09308511,0.12703283,1.8272531,0.45968407,-45.36685181,69.33644867,-91.1137085,0.90981758,3.59241486,-2.24655247,0.99928027,-0.00854859,-0.03118201,0.01984217,0.00166182,-0.0017112,-0.0012431,0,0,0,0,1,1
2,1.6201,159,0.98700029,0.04727329,0.08578969,-0.67632651,0.3038266,0.82794595,-10.75708866,37.62057877,-68.31335449,1.7097193,-0.02772622,0.78350556,0.99986535,-0.01492086,0.00013991,-0.00684017,-0.00261106,-0.02531762,-0.00771452,0,0,0,0,1,1
4,1.6201,155,0.05978768,-0.9290747,-0.37682381,-0.34098127,0.68808132,-0.27441525,-24.99269104,27.41888237,-108.5355148,0.10080843,-0.08463185,9.3293705,0.996687,-0.00093687,0.00066456,-0.08132478,-0.00259346,0.00260259,0.00436035,0,0,0,0,1,1
1,1.63,160,0.18103293,0.98706824,-0.0861012,0.30753306,3.21966147,0.24998017,-45.33761978,68.98567963,-91.37679291,0.90700698,3.59800363,-2.27856445,0.9992733,-0.00853375,-0.03122885,0.02012092,0.00301843,-0.00940979,0.00752194,0,0,0,0,1,1
2,1.6301,160,0.9891932,0.05116639,0.08226499,-0.01536201,0.02383387,0.73013449,-10.75708866,37.62057877,-68.31335449,1.69180489,-0.02249276,0.78156334,0.9998678,-0.01476424,0.00009557,-0.00682253,-0.00421359,-0.01990234,-0.00568987,0,0,0,0,1,1
4,1.6301,156,0.06082579,-0.92618287,-0.37585992,-0.30811611,0.46459362,-0.48620531,-25.22654152,25.48962212,-108.9155197,0.09786484,-0.07837372,9.33201599,0.99668521,-0.00090684,0.0006122,-0.08134773,-0.00340398,0.00201478,0.00138509,0,0,0,0,1,1
1,1.64,161,0.17598826,0.98586297,-0.0874759,-0.66466969,2.49640059,-0.35735232,-44.89915085,68.34259033,-90.96755219,0.89583224,3.59683228,-2.30281115,0.9992702,-0.00844271,-0.03121881,0.02032924,0.00792435,-0.00779892,0.00582786,0,0,0,0,1,1
2,1.6401,161,0.99431944,0.05354958,0.08052481,0.71670896,-0.02860622,0.44198459,-10.84478188,38.38058853,-68.92721558,1.67904031,-0.01705842,0.77455693,0.99986988,-0.01465253,0.00004981,-0.00676069,-0.00513667,-0.01675205,-0.00064878,0,0,0,0,1,1
4,1.6401,157,0.06093791,-0.92224187,-0.37646809,-0.37728995,0.46363321,-0.38224658,-25.22654152,25.48962212,-108.9155197,0.0942504,-0.07308248,9.33507919,0.99668312,-0.00087166,0.00056872,-0.08137432,-0.00361828,0.00001846,-0.00201806,0,0,0,0,1,1
1,1.65,162,0.17872125,0.97963876,-0.0924015,-0.69230789,0.74163783,-1.04432988,-45.86378098,67.2610321,-91.28909302,0.88748533,3.5871346,-2.31031418,0.99927211,-0.00837028,-0.03113518,0.02039179,0.00439784,-0.00221466,0.00038415,0,0,0,0,1,1
2,1.6501,162,0.9948895,0.05540008,0.08358316,0.58884406,-0.20731089,-0.01315906,-10.28938866,37.82519531,-68.16719818,1.67126524,-0.01409477,0.76942945,0.99987113,-0.01458452,0.00002506,-0.00671557,-0.00158295,-0.01626744,0.00027243,0,0,0,0,1,1
4,1.6501,158,0.05976505,-0.91799033,-0.37779993,-0.21645334,0.37634382,-0.26108283,-24.72961044,26.01578522,-109.500145,0.09222873,-0.06924205,9.33770084,0.99668133,-0.00085136,0.00053673,-0.08139709,-0.00256866,-0.0027799,-0.00550926,0,0,0,0,1,1
1,1.66,163,0.1905096,0.97412962,-0.0993357,-0.68243396,-1.273579,-1.44708657,-44.40222168,69.13182831,-91.1137085,0.96425027,3.71429873,-2.29610729,0.99923331,-0.00905776,-0.03223153,0.02029738,-0.00752305,0.0048951,-0.00305694,0,0,0,0,1,1
2,1.6601,163,0.99293005,0.05790163,0.08053722,0.3547079,-0.16357411,-0.34219325,-10.61093235,38.14673996,-67.84565735,1.66811025,-0.01221017,0.76715839,0.99987173,-0.01455688,0.00000909,-0.00669551,-0.00296398,-0.01259486,-0.0018443,0,0,0,0,1,1
4,1.6601,159,0.05695071,-0.91640347,-0.37912655,0.10308657,0.47873861,-0.12464272,-25.25577354,26.48348427,-109.4709168,0.09349579,-0.06627995,9.34159279,0.99667859,-0.00086029,0.00051004,-0.08143092,0.0002429,-0.00460928,-0.00663765,0,0,0,0,1,1
1,1.67,164,0.19932124,0.97259784,-0.10252922,-0.47567105,-2.08793998,-1.35747623,-44.40222168,69.13182831,-91.1137085,0.96321315,3.69875145,-2.2761755,0.99924129,-0.00904045,-0.03209771,0.02012223,-0.01483541,0.00717907,-0.0031328,0,0,0,0,1,1
2,1.6701,164,0.99129581,0.06231876,0.08036966,0.56880718,-0.16291814,-0.46683609,-9.90938282,36.27594376,-68.28412628,1.66839349,-0.01160175,0.76538771,0.99987173,-0.01455931,0.00000399,-0.00667998,-0.0010015,-0.00853683,-0.00328991,0,0,0,0,1,1
4,1.6701,160,0.05842628,-0.91793638,-0.37749472,0.56460971,0.27603319,0.01173151,-24.90499878,26.77579689,-108.6524429,0.0906214,-0.03196175,9.3422842,0.99667817,-0.00081091,0.00021359,-0.08143669,-0.00101226,-0.00255199,-0.00575349,0,0,0,0,1,1
1,1.68,165,0.20770858,0.97481263,-0.10270084,-0.05537525,-1.47511113,-1.06138325,-45.33761978,69.59953308,-90.79216766,0.96520948,3.68675208,-2.26252699,0.99924695,-0.009052,-0.0319938,0.02000296,-0.02312953,0.00714864,0.0000731,0,0,0,0,1,1
2,1.6801,165,0.98917186,0.07026436,0.07753052,0.80075878,-0.30144873,-0.54087901,-9.90938282,36.27594376,-68.28412628,1.67628586,-0.01252998,0.74778754,0.99987173,-0.01462823,0.00001387,-0.00652653,0.00014457,-0.00023601,-0.00530489,0,0,0,0,1,1
