SensorId, TimeStamp (s), FrameNumber, AccX (g), AccY (g), AccZ (g), GyroX (deg/s), GyroY (deg/s), GyroZ (deg/s), MagX (uT), MagY (uT), MagZ (uT), EulerX (deg), EulerY (deg), EulerZ (deg), QuatW, QuatX, QuatY, QuatZ, LinAccX (g), LinAccY (g), LinAccZ (g), Pressure (kPa), Altitude (m), Temperature (degC), HeaveMotion (m),Rep,Clase
3,-0.0001,0,1.11303808,-0.08666306,-0.16111609,31.76715469,0.14684063,17.83913994,-10.08184814,76.35194397,-64.45483398,-1.6611798,-4.0879817,4.51509761,0.99850357,0.0130716,0.03610606,-0.03884559,-0.11437183,0.19886765,0.11853684,0,0,0,0,1,1
5,0,0,1.07366419,0.00479511,0.01737118,-7.07810511,-5.11154991,-1.03117466,-10.15713457,71.87957001,-86.13109381,4.40618896,6.5557189,-3.68969584,0.99703815,-0.04019837,-0.05587081,0.03431357,-0.10351551,-0.09857634,0.03517978,0,0,0,0,1,1
1,0,0,0.11974176,-1.04871655,-0.06906379,-14.36565108,16.07315554,-16.90973091,-43.08681488,0.96463019,-104.1385154,-3.55653071,5.74191517,-1.40350341,0.99807656,0.01993567,-0.05071036,0.01938136,0.08156635,-0.08916548,0.05560708,0,0,0,0,1,1
1,0.0001,0,0.10811976,-1.05757701,0.04618377,-8.19887867,6.03070011,16.17590561,-51.93773651,-16.77871895,-81.84117045,3.48791861,0.4773166,0.41314857,0.99951185,-0.03041718,-0.00417587,-0.00356415,-0.11394303,-0.01604066,0.07311937,0,0,0,0,1,1
3,0.0099,1,1.09750819,-0.11103173,-0.10395611,10.84376611,6.85191488,11.84898181,-10.08184814,76.35194397,-65.01013101,-1.69963016,-3.95608544,4.39901158,0.99857759,0.01348719,0.03505614,-0.03784061,-0.34180655,0.15560977,0.08413693,0,0,0,0,1,1
5,0.01,1,0.99908161,0.06114485,0.05633364,-14.65593614,-8.16319084,-1.68831147,-10.34491874,71.01571631,-86.16131965,4.45657106,6.56336594,-3.51311589,0.99706541,-0.0405574,-0.05598117,0.0318913,-0.11907979,-0.10041187,-0.0156831,0,0,0,0,1,1
1,0.01,1,0.15187463,-1.00117804,-0.03653138,-16.10691115,18.66735077,-15.81113543,-43.16110311,0.81847411,-104.0913691,-3.7578609,6.00170374,-1.09160154,0.99795687,0.03178179,-0.05191181,0.01650936,0.03984741,-0.03911841,0.01351864,0,0,0,0,1,1
1,0.0101,1,0.10718419,-1.11314918,0.0188891,-8.11483153,7.05411306,19.97493171,-53.93159866,-16.18178787,-83.54181379,3.41178116,0.17171815,0.48573179,0.99954534,-0.01975857,-0.00150501,-0.00416607,-0.11111914,-0.05177704,0.138014,0,0,0,0,1,1
3,0.0199,1,0.99698198,-0.11541005,-0.03114304,-14.51813415,11.04309845,7.0001103,-19.73107338,76.38117118,-65.01013101,-1.81066143,-3.87011157,4.534657,0.99854155,0.01453036,0.03436513,-0.03899839,-0.14711564,0.07545843,-0.01016777,0,0,0,0,1,1
5,0.01,1,0.9347434,0.16135478,0.03955561,-15.17019367,-6.7467165,-1.38511135,-10.40339088,71.47031918,-86.14440155,4.49104063,6.5674057,-3.35618366,0.99709767,-0.04078541,-0.05606568,0.03145813,-0.01111601,-0.04179604,-0.05138679,0,0,0,0,1,1
1,0.01,1,0.1169704,-0.95431381,-0.00714551,-17.11351539,40.11816004,-15.673069,-43.14517893,0.08769365,-104.530838,-3.94517616,6.16014485,-1.66575778,0.99783816,0.03357399,-0.05506514,0.01161619,0.06513601,-0.00344715,-0.03171041,0,0,0,0,1,1
1,0.0101,1,0.11369017,-1.11086439,-0.01048101,-8.15816536,7.13919749,14.06604004,-53.93159866,-16.18178787,-83.54181379,3.33509564,0.0173119,0.54663116,0.99956511,-0.01909861,-0.00037714,-0.00476118,-0.13181388,-0.08079407,0.13665038,0,0,0,0,1,1
3,0.0199,3,0.9975118,-0.00339006,-0.01018004,-15.14090576,14.4041901,1.17011347,-19.67160933,75.88414683,-64.16151136,-1.66993171,-1.81664968,3.41005154,0.99915993,0.01383034,0.01499739,-0.01938378,-0.1330414,0.04164417,-0.00146836,0,0,0,0,1,1
5,0.03,3,0.93310338,0.15177813,0.10106515,-15.00147191,-5.64178801,-0.18667187,-10.40339088,71.47031918,-86.14440155,4.5119571,6.57781458,-3.19518985,0.99711807,-0.04089094,-0.05610801,0.03007101,0.08130014,-0.05919074,-0.01931381,0,0,0,0,1,1
1,0.03,3,0.10084648,-0.9101101,0.00796817,-14.96661186,43.95598984,-17.40336037,-41.96989059,-1.54915454,-105.1446915,-4.10107796,6.53734731,-1.10409131,0.99769998,0.0351308,-0.05735394,0.00844311,0.09191699,0.01688583,-0.06719168,0,0,0,0,1,1
1,0.0301,3,0.18671995,-1.09051908,-0.03830807,-6.89977741,6.35833931,17.71995567,-53.17158508,-16.57410049,-83.10435486,1.01168191,0.50109019,-1.78161754,0.99971159,-0.01771599,-0.00409711,0.0156116,-0.09878065,-0.10161847,0.10187306,0,0,0,0,1,1
3,0.0399,4,1.00517309,0.1011711,0.01899718,-18.34183111,14.84697914,0.33109611,-19.90645981,76.1180954,-63.91867661,-1.84949519,-1.7887485,3.68135183,0.99907035,0.01534435,0.01483667,-0.03171181,-0.01019111,-0.00881867,0.01116316,0,0,0,0,1,1
5,0.04,4,0.96601476,0.13988661,0.116599,-15.51485538,-1.83947611,0.41995381,-10.46185303,71.96716117,-86.19055786,3.48613381,5.81316137,-3.16813769,0.99781713,-0.03176795,-0.04981499,0.01913803,0.06919098,-0.08300785,0.01145699,0,0,0,0,1,1
1,0.04,4,0.10170317,-0.90487868,0.00495035,-10.37549019,41.145317,-15.8079051,-41.96989059,-1.54915454,-105.1446915,-4.11710587,6.79911853,-0.77398759,0.99755639,0.03631704,-0.05950533,0.00455609,0.09441117,0.01713,-0.08177067,0,0,0,0,1,1
1,0.0401,4,0.1070054,-1.06515098,-0.07110646,-3.47881436,8.40711451,31.19515518,-54.13611511,-15.15869656,-83.51358795,1.99481739,0.18554597,-1.70919074,0.99973559,-0.01741946,-0.00135911,0.01494171,-0.01676373,-0.1171135,0.07011786,0,0,0,0,1,1
3,0.0499,5,0.99778968,0.11486181,0.08841164,-17.11196731,15.87940598,-0.65490985,-18.97106171,75.65039061,-64.39637756,-1.03883051,-1.76911546,3.94188761,0.99897315,0.0169446,0.01475641,-0.03394755,-0.0014815,-0.06713119,0.00504393,0,0,0,0,1,1
5,0.05,5,0.971394,0.15077969,0.14556757,-11.8489541,1.14603844,-0.13174514,-10.5495471,71.79187011,-85.85108893,3.45033741,5.79991104,-3.05891515,0.99787039,-0.0314058,-0.04974877,0.01816717,0.07470971,-0.0817389,0.01011416,0,0,0,0,1,1
1,0.05,5,0.07787099,-0.91194919,-0.01588511,-11.18860091,33.60135596,-10.13391868,-43.13197119,1.66617941,-105.817009,-4.41517519,5.45511676,-0.58186138,0.99811894,0.03831164,-0.04774669,0.00313096,0.11785137,-0.00184771,-0.06750158,0,0,0,0,1,1
1,0.0501,5,0.11814869,-1.04431534,-0.0340354,-1.53190939,9.30459013,33.95708084,-54.13611511,-15.15869656,-83.80590057,1.97670841,-0.15793014,-1.61989916,0.99974948,-0.01711781,0.00161319,0.01419717,-0.04538155,-0.07949004,0.05139583,0,0,0,0,1,1
3,0.0599,6,1.0113939,0.14477636,0.13111703,-14.36133134,15.34441711,-0.04506353,-19.7603035,76.1180954,-64.6009903,-1.10711008,-1.747916,4.07419968,0.9989118,0.01839055,0.01464171,-0.03506815,0.01191971,-0.10973583,0.01973881,0,0,0,0,1,1
5,0.06,6,0.96095389,0.17199657,0.19876963,-11.17957058,4.18454075,-1.5469408,-10.11107816,70.14161475,-86.31978607,3.39349818,5.76141787,-1.95331165,0.99791856,-0.03085681,-0.04945587,0.01711347,0.11851711,-0.11905956,0.01349839,0,0,0,0,1,1
1,0.06,6,0.01711551,-0.9589805,-0.01494073,-8.0481111,14.61185165,-15.35490036,-41.94680013,0.3115434,-105.37854,-4.45841409,5.61184549,-0.33017868,0.99804664,0.03870951,-0.0490177,0.00097159,0.15437505,-0.01148139,-0.03845718,0,0,0,0,1,1
1,0.0601,6,0.10346764,-0.99134588,-0.01681878,-1.49504149,4.4115197,36.03810883,-54.80853653,-15.51177715,-83.19104711,1.9648813,-0.51996434,-1.60078585,0.99974631,-0.01708075,0.00477593,0.01388904,-0.13077186,-0.07145818,0.0046605,0,0,0,0,1,1
3,0.0699,7,1.00811197,0.15870056,0.16103554,-6.66707897,14.83118683,0.83613761,-19.7603035,76.1180954,-64.6009903,-1.36061515,-1.71118135,4.11975073,0.99887455,0.01971415,0.01446609,-0.03551447,0.0131131,-0.13715585,0.0173809,0,0,0,0,1,1
5,0.07,7,0.97485405,0.16907635,0.19858544,-14.31710339,5.94931117,-3.98517084,-10.16954041,71.6164856,-86.01747345,3.31685661,5.6913851,-1.83166671,0.99800511,-0.03010993,-0.04890156,0.01610851,0.10977931,-0.11951517,0.03541871,0,0,0,0,1,1
1,0.07,7,-0.00534093,-0.97576493,-0.01590338,-6.84371807,11.81717695,-11.87593746,-41.53141166,1.40309846,-105.7000885,-4.50316151,5.74140065,-0.10736656,0.99797553,0.03914819,-0.05011317,-0.00016104,0.19067639,-0.00193115,-0.0137595,0,0,0,0,1,1
1,0.0701,7,0.13615919,-1.00549603,-0.10785506,0.17856448,0.6376636,38.08917136,-54.80853653,-15.51177715,-83.19104711,1.9679904,-0.90075594,-1.61164773,0.99971475,-0.01706035,0.00810007,0.01391633,-0.06911685,-0.15157841,0.01164964,0,0,0,0,1,1
3,0.0799,8,1.01615151,0.16819008,0.16158556,-4.14719919,13.65355778,1.50878906,-19.43876076,75.88414683,-63.78151019,-3.8937716,-3.03907967,4.83146477,0.9981114,0.03181381,0.01791045,-0.04111074,0.03090881,-0.13114319,0.01653118,0,0,0,0,1,1
1,0.08,8,-0.01715185,-0.94731143,-0.0085706,-5.14115044,-0.60930854,-8.58744611,-41.35603714,1.11078631,-105.1154633,-4.5557785,5.81855177,-0.10991415,0.99791956,0.03960165,-0.05087411,-0.00019173,0.11175143,0.00715606,-0.05311008,0,0,0,0,1,1
5,0.08,8,0.9960745,0.15910166,0.17930637,-14.0048151,7.69799757,-5.61997055,-10.16954041,71.6164856,-86.01747345,3.15118891,5.60144319,-1.71685767,0.99808985,-0.01949193,-0.04815701,0.01505514,0.08519661,-0.10511614,0.05001869,0,0,0,0,1,1
1,0.0801,8,0.05664347,-1.01986193,-0.0591309,1.75081396,1.01688177,41.17433548,-54.71084045,-14.35151857,-83.51358795,0.71019769,-1.46710076,-3.87511697,0.99931933,-0.00584874,0.01300833,0.03371741,0.00440916,-0.09886049,0.03111955,0,0,0,0,1,1
3,0.0899,9,1.01368176,0.17575191,0.16341115,-4.85104887,11.33998013,1.49654341,-19.99415398,75.358078,-63.54866791,-4.00885153,-1.99915195,4.86974515,0.99818183,0.03381103,0.01761535,-0.04151871,0.03388191,-0.11153719,0.0357894,0,0,0,0,1,1
5,0.09,9,1.01143177,0.16619651,0.18318197,-13.46410847,6.88944006,-6.58500814,-19.84799767,71.76164191,-85.76439667,1.01370667,4.5619483,-1.64644814,0.99876918,-0.01855949,-0.03937569,0.01377331,0.08140104,-0.09951591,0.06618901,0,0,0,0,1,1
1,0.09,9,-0.04111883,-0.93315466,-0.00061086,-3.09766603,-13.44911066,-1.13915553,-41.35603714,1.11078631,-105.1154633,-4.61188936,5.83938016,-0.34198178,0.99789488,0.04003115,-0.05101459,0.00091864,0.11613573,0.01694019,-0.06785006,0,0,0,0,1,1
1,0.0901,9,0.04357414,-1.03669511,-0.08144093,3.31341601,6.0136391,45.30319595,-54.86699677,-14.13560333,-83.30897511,0.75637084,-1.91147183,-3.81831501,0.99918343,-0.00603587,0.01697793,0.03318609,0.00831811,-0.1051161,0.03653357,0,0,0,0,1,1
3,0.0999,10,1.01193809,0.17439107,0.14816898,-5.11195618,9.15191969,3.40136591,-10.01338409,74.45191193,-64.11098541,-4.10170834,-1.95106738,4.91165345,0.99814911,0.03464711,0.01715113,-0.04189497,0.03509098,-0.09547109,0.03415433,0,0,0,0,1,1
5,0.1,10,1.01047176,0.16456606,0.19901389,-11.96569347,5.05479517,-6.51513017,-19.90645981,68.15489807,-85.61814036,1.97874891,4.47745131,-1.54051781,0.99881718,-0.0181154,-0.03866516,0.01181149,0.07086757,-0.09836487,0.0746095,0,0,0,0,1,1
1,0.1,10,-0.05595115,-0.918195,0.0180596,-1.90134466,-15.36169951,7.08446117,-41.41449738,0.935399,-105.1154633,-4.15794458,3.10940504,-0.14419645,0.99894138,0.03710119,-0.01715931,0.00014911,0.11731916,0.03516669,-0.0738939,0,0,0,0,1,1
1,0.1001,10,0.01718406,-1.04351473,-0.05640835,4.3683095,3.16797915,46.3080101,-54.80853653,-14.3131975,-83.48435974,0.8014695,-1.38514156,-3.81018414,0.99911119,-0.0061968,0.01103314,0.03309137,0.01711967,-0.08091515,0.04178184,0,0,0,0,1,1
3,0.1099,11,1.01693939,0.16611975,0.14695471,-4.15450087,6.99694104,4.08611919,-10.01338409,75.38731384,-63.89944458,-4.17131561,-1.9011971,4.94709539,0.99811597,0.03516496,0.01684511,-0.04119503,0.01755407,-0.09196758,0.03864673,0,0,0,0,1,1
5,0.11,11,0.99783617,0.1443103,0.11940187,-9.58313097,3.7087183,-6.18444104,-19.4971119,71.7334137,-85.47108405,1.94966018,4.40160601,-1.45364513,0.99887449,-0.01781899,-0.03803117,0.01104489,0.06766117,-0.11494916,0.0500676,0,0,0,0,1,1
1,0.11,11,-0.01756418,-0.88579541,0.01089819,0.44399197,-30.65735145,11.68444633,-41.16834106,0.76001167,-105.5539311,-4.19756831,1.98011137,-0.44931491,0.99895507,0.0373797,-0.01613101,0.00194194,0.14870796,0.01660101,-0.11617706,0,0,0,0,1,1
1,0.1101,11,-0.10610806,-1.0479641,-0.074937,1.97613597,-1.1014657,45.64801933,-55.80139487,-16.66179466,-83.17973938,0.83073306,-1.84093161,-3.84486146,0.99910986,-0.00641157,0.01501778,0.03335565,0.14147438,-0.10011791,0.03657171,0,0,0,0,1,1
3,0.1199,11,1.03704619,0.14379346,0.14053681,-1.88387311,5.01081681,4.5316151,-10.37415886,75.70885468,-63.63636398,-4.11015718,-1.84891035,4.96906137,0.99811363,0.03569748,0.0164144,-0.0413914,0.00631714,-0.08118067,0.04718407,0,0,0,0,1,1
5,0.11,11,0.973014,0.15174804,0.11147319,-7.55169814,3.43171884,-6.15194407,-10.11800155,71.87957001,-85.16746368,1.91801013,4.31901193,-1.3851119,0.99891543,-0.01759461,-0.0374054,0.0114309,0.08116083,-0.11171401,0.01899371,0,0,0,0,1,1
1,0.11,11,0.05811051,-0.8696509,-0.03735338,4.08908319,-19.86998749,15.43615055,-41.31680511,0.11691487,-105.4661399,-4.19933357,1.81303309,-0.74947161,0.99897778,0.03733677,-0.01486051,0.00560978,0.06891107,-0.01018118,-0.1189109,0,0,0,0,1,1
1,0.1101,11,-0.18851471,-0.99515149,0.00677066,1.13367419,-11.14166143,44.50536346,-55.80139487,-16.66179466,-83.17973938,0.85018671,-3.18174941,-3.97997618,0.99896681,-0.00641708,0.01888193,0.03449716,0.11159339,-0.01816318,-0.01116301,0,0,0,0,1,1
3,0.1199,13,1.01861631,0.14398314,0.15610394,0.4996471,1.87564754,4.93415165,-10.37415886,75.70885468,-63.63636398,-5.31171848,-1.9606607,5.39000654,0.99754419,0.04505689,0.01795547,-0.0457574,0.00558061,-0.09148898,0.03918947,0,0,0,0,1,1
5,0.13,13,0.97044146,0.15461173,0.11137397,-6.13113369,3.49994611,-6.40861174,-10.11800155,71.87957001,-85.16746368,1.90973544,4.15411001,-1.33034815,0.9989531,-0.01740453,-0.03676507,0.0109363,0.07906361,-0.11147437,0.01559157,0,0,0,0,1,1
1,0.13,13,0.13688363,-0.88791557,-0.09356631,8.44736195,-16.41371871,15.89330006,-41.64834976,1.14001751,-105.5831604,-4.15136511,1.66148133,-1.01899767,0.99901016,0.03688151,-0.01353663,0.00801111,-0.01096401,-0.07798159,-0.10769091,0,0,0,0,1,1
1,0.1301,13,-0.13417961,-0.94395548,-0.01578495,0.14854654,-11.15351105,41.10589818,-54.80853653,-15.11946453,-83.33810343,0.34518449,-6.88355589,-6.87714434,0.99640554,0.00059841,0.06010616,0.05968934,0.13178313,-0.03811345,-0.07456546,0,0,0,0,1,1
3,0.1399,14,1.01638193,0.14850148,0.1687713,1.69300056,1.58001889,4.97754611,-19.73107338,75.4750061,-64.01636505,-5.31849098,-1.91113884,5.35777091,0.99756444,0.04514384,0.017514,-0.04549511,0.00815411,-0.09143581,0.01844117,0,0,0,0,1,1
5,0.14,14,0.96380371,0.15538194,0.19950485,-3.01985955,3.51483941,-6.64066114,-10.49108505,71.67494965,-86.01747345,0.83138304,3.33951831,-1.30684185,0.9993411,-0.00784583,-0.01898591,0.01033116,0.07190683,-0.0966119,0.017436,0,0,0,0,1,1
1,0.14,14,0.18449419,-0.90413435,-0.1194313,10.30716705,-14.71370338,15.6817894,-41.64834976,1.14001751,-105.5831604,-4.18393135,1.50131457,-1.17346599,0.99904151,0.03615013,-0.01111473,0.01030579,-0.05989777,-0.1059197,-0.08918741,0,0,0,0,1,1
1,0.1401,14,-0.30105409,-0.86668105,0.03671075,-1.37891519,-33.71190643,35.77975845,-56.09470749,-13.41711951,-81.98741676,0.34675017,-7.13578548,-7.11053613,0.99603403,0.00095955,0.06316681,0.06165301,0.14511911,0.01171871,-0.15193515,0,0,0,0,1,1
3,0.1499,15,1.01618945,0.1130708,0.17161375,5.18137351,0.07970773,4.68900776,-10.14031019,75.61116141,-63.84098053,-5.30781461,-1.87050104,5.30118458,0.99759889,0.04508157,0.01713459,-0.04503114,-0.0171806,-0.09154464,0.03643083,0,0,0,0,1,1
5,0.15,15,0.96861416,0.15618379,0.18131568,1.11179171,3.18391751,-6.94198553,-19.38019861,71.47031918,-85.13813547,0.83955811,3.16346946,-1.31850313,0.9993571,-0.00790054,-0.01831984,0.01051841,0.05175706,-0.06679531,0.01879536,0,0,0,0,1,1
1,0.15,15,0.11545447,-0.9157061,-0.13866737,11.33311048,-13.1354084,14.79064751,-41.91143036,-1.1177111,-105.1154633,-5.81334995,3.65113091,1.01348304,0.99801797,0.05131451,-0.03091417,-0.01914351,-0.08686191,-0.11981133,-0.07559111,0,0,0,0,1,1
1,0.1501,15,-0.3531508,-0.80411091,0.10543181,-1.81411099,-39.77960968,16.68784141,-56.19931785,-13.94319166,-83.0166616,0.33846951,-7.49613513,-7.61148707,0.99566181,0.00140411,0.06541051,0.06613457,0.18718954,0.0911366,-0.11697444,0,0,0,0,1,1
3,0.1599,16,1.01098131,0.11607616,0.15650166,7.11651815,-1.44010111,4.55400848,-19.84799767,75.73809051,-61.99317469,-5.18004408,-1.83341099,5.11858477,0.99764597,0.04487115,0.01677108,-0.04441111,-0.01143031,-0.07611103,0.03080419,0,0,0,0,1,1
5,0.16,16,0.97911383,0.14588546,0.17964517,9.0595193,1.64017891,-6.91674108,-10.16954041,71.37649536,-85.5305481,0.87771577,3.19510783,-1.41099453,0.99935617,-0.00814119,-0.01771176,0.01114304,0.03715301,-0.06940161,0.0154587,0,0,0,0,1,1
1,0.16,16,0.14884394,-0.93441833,-0.158419,15.7759037,-19.60043335,11.31691741,-41.64834976,0.67131804,-104.7939114,-5.69707441,3.51001381,1.81819178,0.99814337,0.05015189,-0.01988311,-0.01736596,-0.10404569,-0.11013381,-0.05180414,0,0,0,0,1,1
1,0.1601,16,-0.33615673,-0.79318175,0.13808156,-8.14751144,-39.37411561,11.71941853,-56.1408638,-13.35866737,-81.66588593,0.17736858,-7.60708137,-8.01373768,0.99536681,0.00111599,0.06634197,0.06956175,0.16644551,0.11447854,-0.11476314,0,0,0,0,1,1
3,0.1699,17,1.00180054,0.13141741,0.13450587,8.0781116,-3.11566448,4.13374996,-10.14031019,75.88414683,-63.75318817,-5.13510885,-1.8030467,5.14719148,0.99770075,0.04451111,0.01645864,-0.04371647,-0.0019404,-0.0566104,0.01178489,0,0,0,0,1,1
1,0.17,17,0.13107983,-1.01897164,-0.14757335,10.10305634,-10.05843158,9.10493946,-43.49605179,1.14001751,-105.3493118,-5.51114317,3.41413901,1.7030189,0.99816586,0.04850155,-0.01911467,-0.01617374,-0.08070648,-0.11783777,0.01997161,0,0,0,0,1,1
1,0.1701,17,-0.3038961,-0.78534591,0.1399046,-18.44105666,-15.69468117,-1.58469558,-56.1408638,-13.35866737,-81.66588593,0.10531713,-7.57770157,-8.1569951,0.99511913,0.00384163,0.06597414,0.07177556,0.13330601,0.1186994,-0.1300553,0,0,0,0,1,1
3,0.1799,18,0.99536335,0.14533761,0.09469537,8.34373569,-4.60364389,3.9389801,-10.14031019,75.88414683,-63.75318817,-5.11744813,-3.00137639,4.93407774,0.99774677,0.04433118,0.01809606,-0.04179439,0.01614811,-0.01931053,0.00756151,0,0,0,0,1,1
1,0.18,18,0.14594641,-1.10056078,-0.15451561,11.03181601,-1.14001393,6.17578115,-43.10374198,0.99386144,-105.0569991,-5.30717959,3.35904141,1.66488361,0.99837345,0.04669876,-0.0186011,-0.01586333,0.00991316,-0.13368535,0.10164753,0,0,0,0,1,1
3,0.1899,19,1.00846016,0.14671785,0.07560818,11.7907361,-5.4469141,4.04731313,-10.11107816,75.94170315,-64.15011115,-5.14488935,-1.97750091,4.81766748,0.99781163,0.04373688,0.01781731,-0.04080811,0.01619386,-0.00114114,0.01093357,0,0,0,0,1,1
3,0.1199,10,1.01587581,0.01154891,0.1571658,3.77504706,-9.4446106,-1.79614878,-19.93569183,75.70885468,-64.63011614,-5.50318445,-1.73909807,5.766747,0.99750419,0.04717793,0.01755383,-0.0495117,-0.11173487,-0.07166538,0.01878546,0,0,0,0,1,1
3,0.1399,11,1.01531064,0.05313859,0.14191556,3.89831449,-11.19909573,-4.36895175,-19.93569183,75.70885468,-64.63011614,-5.3935051,-1.79750597,5.74055614,0.99755371,0.04610044,0.01800415,-0.04917615,-0.06386837,-0.05310054,0.03043633,0,0,0,0,1,1
5,0.14,17,0.94903594,0.19618414,0.17611579,14.94481177,-3.48109405,1.58570337,-19.99415398,71.63957977,-85.79361488,-0.87191887,1.18015161,-3.48484468,0.99931544,0.00699895,-0.01011819,0.03014809,0.08708171,-0.01634975,0.01039401,0,0,0,0,1,1
3,0.1499,11,1.00775814,0.11071419,0.11990308,4.60991001,-11.67876053,-5.50010695,-19.84799767,75.65039061,-64.77638145,-5.1696147,-1.86914517,5.70918574,0.99760789,0.0450951,0.01856315,-0.04899411,0.00451906,-0.04969119,0.01745116,0,0,0,0,1,1
5,0.15,18,0.96013399,0.30580944,0.19146404,19.01391365,-3.15011361,1.36417079,-10.34491874,71.43495941,-86.84594717,-0.8019883,1.31301834,-3.6603713,0.99916633,0.00634901,-0.01039618,0.03178885,0.08316191,-0.01444051,0.01504831,0,0,0,0,1,1
3,0.1599,13,1.01901031,0.11514308,0.13683534,4.58194773,-14.16160774,-6.40907188,-19.17568016,74.83191681,-64.13319315,-5.13105194,-1.95140553,5.68004036,0.99766344,0.04386618,0.01910838,-0.0487191,0.00609743,-0.05936748,0.0187684,0,0,0,0,1,1
5,0.16,19,0.9783386,0.30019691,0.1361964,11.15817871,-1.30046916,1.31410017,-10.31569671,71.70417786,-86.51440643,-0.7198665,1.3313431,-3.85817017,0.99911041,0.00567911,-0.01055454,0.03351618,0.05035005,0.01158739,0.03311331,0,0,0,0,1,1
3,0.1699,14,1.01994111,0.11503779,0.13005686,5.61679888,-16.36159079,-6.08914675,-19.90645981,75.81578178,-64.65945435,-4.97115196,-1.03350544,5.64171168,0.99771941,0.04143691,0.01984056,-0.04839074,0.00511894,-0.05516896,0.01954566,0,0,0,0,1,1
5,0.17,10,1.00117888,0.19940411,0.07736349,11.44554901,-1.97491119,1.14674094,-10.81161779,71.171875,-86.17361976,-0.65710105,1.34963059,-4.06813111,0.99914753,0.00500171,-0.01069319,0.03536901,0.01845801,0.0719104,0.04683514,0,0,0,0,1,1
1,0.17,19,0.11846937,-0.97500879,0.11447356,15.93561168,1.11731901,11.17997646,-43.08681488,0.10461853,-104.5893011,-5.68866444,0.54784846,-0.19098463,0.99875408,0.04960971,-0.00490096,0.00119891,-0.01085481,0.15957718,-0.00715057,0,0,0,0,1,1
1,0.1701,18,-0.13043153,-1.03010583,-0.13760799,-0.17111719,8.00604439,-11.30784798,-55.33469771,-14.99561501,-83.41589569,0.1606013,-9.33733368,-4.08790016,0.99605107,0.001507,0.0813914,0.03543371,0.04799101,-0.15110109,0.01746111,0,0,0,0,1,1
3,0.1799,15,1.01915361,0.13389761,0.11087117,6.49188318,-17.16613535,-5.54111101,-19.87711778,76.08885956,-65.11715149,-5.07807301,-1.15104713,5.3315773,0.99778509,0.04333086,0.0116613,-0.04558613,0.0140545,-0.03887517,0.01951983,0,0,0,0,1,1
5,0.18,11,1.01544463,0.19373085,0.05171881,11.81619071,-1.65049493,1.65185551,-10.40339088,71.49341346,-86.49517811,-0.58790581,1.36937761,-4.18316545,0.99907881,0.00435314,-0.0108511,0.03715448,-0.00410088,0.09119554,0.06475391,0,0,0,0,1,1
1,0.18,10,0.15056016,-0.97047104,0.13451116,16.19548115,7.47869587,10.45406531,-43.87606049,1.31540489,-104.530838,-5.51080774,0.44416686,-0.11748916,0.99883056,0.04815134,-0.00396805,0.00179619,-0.05501653,0.16699144,-0.0084589,0,0,0,0,1,1
1,0.1801,19,-0.14108135,-1.03714811,-0.16800841,3.89441118,5.06116106,-17.91319847,-54.91546081,-15.08330917,-83.65974416,-1.54061913,-9.1518383,0.64838654,0.99671157,0.01194959,0.07984719,-0.00456711,0.06367441,-0.17433619,0.03379787,0,0,0,0,1,1
3,0.1899,16,1.01814915,0.14776558,0.07659633,11.01105785,-17.45148659,-4.89151181,-19.87711778,76.08885956,-65.11715149,-4.89803119,-1.31788444,5.11946358,0.99788016,0.04175113,0.01111149,-0.04470166,0.01774894,-0.00578175,0.03977171,0,0,0,0,1,1
5,0.19,11,1.04661085,0.19603111,0.03170903,11.51193137,-1.63560867,1.59339941,-10.40339088,71.49341346,-86.49517811,0.67947793,1.56198661,-5.11181314,0.9986881,-0.00694084,-0.0110707,0.04568111,-0.01597313,0.10485513,0.08186156,0,0,0,0,1,1
1,0.19,11,0.11874978,-0.96396345,0.11764913,17.08750153,9.14431087,10.13537154,-43.99198477,1.1691487,-103.8877487,-5.34148157,0.34310193,-0.14758131,0.99890834,0.04660096,-0.0030509,0.00114694,-0.11531857,0.15757169,-0.00964717,0,0,0,0,1,1
1,0.1901,10,0.00811145,-0.99781759,-0.1506111,9.17464066,0.88013591,-15.76479053,-55.74393463,-14.11867905,-83.33810343,-1.44819856,-8.99415316,0.64737678,0.99683141,0.01115554,0.07847173,-0.00464067,-0.08641004,-0.13535455,0.00650798,0,0,0,0,1,1
3,0.1999,17,1.04111666,0.11791879,0.05113761,17.49104118,-17.57540703,-3.15119591,-10.16954041,76.03040314,-65.06869507,-4.70881176,-1.39183814,5.0714183,0.99799788,0.04010839,0.01165897,-0.0433381,0.00856773,0.0174663,0.05141463,0,0,0,0,1,1
5,0.3,13,1.06486918,0.1931397,0.0188349,19.39616585,-4.13007154,1.13180591,-10.431611,71.01571631,-86.31978607,0.76188807,1.59470677,-5.39686537,0.99860591,-0.00771411,-0.0113011,0.04711657,-0.01671184,0.09817386,0.09780869,0,0,0,0,1,1
1,0.3,11,0.1955361,-0.97079867,0.11109411,19.19418444,7.0101881,9.96435641,-43.99198477,1.1691487,-103.8877487,-3.6033081,1.68156051,1.83964151,0.99909145,0.03180139,-0.01187974,-0.01677644,-0.19136109,0.14154905,0.00301745,0,0,0,0,1,1
1,0.3001,11,0.08541111,-0.9748531,-0.1174958,14.11899033,-9.35719681,-18.98088646,-55.59777831,-14.3131975,-83.16181891,-1.19696798,-8.80597115,0.53890916,0.99697804,0.01091339,0.07681816,-0.00381979,-0.1611349,-0.10418417,-0.01044994,0,0,0,0,1,1
3,0.3099,18,1.05801417,0.11337039,0.01393651,18.34091759,-17.80000305,-3.11875867,-19.81876564,76.16415171,-65.41946411,-4.51609898,-1.45698333,4.90478086,0.99811511,0.03843839,0.01308881,-0.04190111,-0.00388556,0.05368096,0.0671419,0,0,0,0,1,1
5,0.31,14,1.09013919,0.17930109,0.00431336,16.3136599,-6.11138909,0.91058154,-19.96491195,71.69804381,-86.96187537,0.85570419,1.63150644,-5.53585005,0.99853384,-0.0085655,-0.01157416,0.04844779,-0.05184479,0.10364366,0.11614851,0,0,0,0,1,1
1,0.31,13,0.35441719,-1.0078913,0.11331819,11.03010477,-0.39346071,9.48064804,-43.58374786,0.96463019,-103.3031135,-3.3858676,1.58561683,1.81573105,0.99917316,0.01988906,-0.01108119,-0.01650009,-0.1175847,0.10650413,0.0434733,0,0,0,0,1,1
1,0.3101,11,0.04776409,-1.00118174,-0.01141409,17.84600639,-17.39841415,-10.16815333,-55.59777831,-14.3131975,-83.16181891,-1.1036638,-8.60540581,0.34693933,0.99713196,0.00937681,0.07505099,-0.00119636,-0.11901001,-0.01148683,0.01330067,0,0,0,0,1,1
3,0.3199,19,1.0677141,0.14497545,0.01311838,18.59577751,-16.98058891,-3.70637083,-19.73107338,76.70171064,-65.41946411,-4.33166118,-1.51565193,4.73515844,0.99811456,0.03684067,0.01356495,-0.04043857,0.01568695,0.04765934,0.07886755,0,0,0,0,1,1
5,0.31,15,1.11015858,0.15816693,-0.0065468,11.30006981,-8.70517167,0.81989484,-19.70184135,71.51165167,-86.17361976,0.96058553,1.67841744,-5.61897105,0.99847633,-0.00951774,-0.01193097,0.04918181,-0.07981451,0.10150707,0.11789751,0,0,0,0,1,1
1,0.31,14,0.35714465,-1.03674531,0.10144379,11.76394653,-10.13187916,9.18657107,-43.84681846,0.40913706,-103.4785156,-3.17400193,1.49359101,1.69371513,0.99916174,0.01800674,-0.01133901,-0.01537338,-0.11944737,0.08996166,0.07137676,0,0,0,0,1,1
1,0.3101,13,-0.01379783,-1.00349414,0.03701371,19.03191893,-16.3398304,-19.49956311,-55.39315796,-14.44011179,-83.17973938,-0.89989793,-8.4118309,0.16555934,0.99717607,0.00771589,0.07335011,-0.00086489,-0.04405997,0.0434351,0.00984811,0,0,0,0,1,1
3,0.3199,30,1.07940793,0.13534135,0.01858044,16.71039963,-15.65418053,-3.19151878,-10.05161611,76.35194397,-65.1733078,-3.81543911,-1.51486467,4.73530711,0.99838048,0.03134367,0.01337571,-0.04054585,0.01181506,0.0188818,0.08946578,0,0,0,0,1,1
5,0.33,16,1.09643757,0.13851881,-0.0155788,8.81974434,-11.38819313,1.07301378,-10.1864666,71.11341858,-85.70593161,1.07845891,1.73867965,-5.68156004,0.99843061,-0.01058115,-0.01340049,0.04976891,-0.09519463,0.10005459,0.10810505,0,0,0,0,1,1
1,0.33,15,0.33195311,-1.0441854,0.08511771,11.30958176,-16.66563034,8.69819546,-44.13914108,0.87693655,-103.4785156,-1.98491693,1.40779018,1.50764096,0.99934644,0.01631368,-0.01065885,-0.01369607,-0.19633865,0.06883111,0.07513136,0,0,0,0,1,1
1,0.3301,14,-0.04135804,-0.98847955,0.08101876,19.05944633,-10.89717101,-10.04743004,-55.61701035,-14.35151857,-81.78181403,0.13917999,-7.94561148,-1.81341911,0.99747135,-0.00098647,0.06930711,0.01564178,-0.01317776,0.08009137,-0.00678913,0,0,0,0,1,1
3,0.3399,31,1.09655161,0.09787691,0.01330891,13.05673695,-14.07014479,-1.8030405,-19.96491195,75.09500111,-65.59485616,-3.66480064,-1.57590485,4.61736011,0.99845403,0.03103694,0.01373515,-0.03953414,-0.01508117,0.03095951,0.10356586,0,0,0,0,1,1
5,0.34,17,1.06783414,0.11111344,-0.01105887,4.98737335,-14.16396331,1.41381115,-10.1864666,71.11341858,-85.70593161,1.96056111,3.94104116,-5.11565374,0.9981363,-0.01861876,-0.03359003,0.04516967,-0.10133018,0.07991185,0.07449811,0,0,0,0,1,1
1,0.34,16,0.1661544,-1.03566539,0.07513101,19.17114639,-18.39153616,7.59579315,-44.08067703,1.01309163,-103.5369797,-1.81897378,1.33395147,1.30615103,0.99941939,0.01481306,-0.01007836,-0.01189318,-0.13108115,0.05641077,0.0599815,0,0,0,0,1,1
1,0.3401,15,-0.01575635,-0.99104177,0.08936666,18.45697975,-6.79363718,-10.5868106,-55.45161101,-14.44011179,-81.51971961,0.41893958,-7.73858547,-1.89311315,0.9975816,-0.00161934,0.06753158,0.01613031,-0.04139716,0.07185948,-0.00116439,0,0,0,0,1,1
3,0.3499,31,1.09617604,0.07711133,0.04153708,10.1679163,-11.94514561,-3.35648131,-19.96491195,75.09500111,-65.59485616,-3.51905846,-1.61915564,4.51753448,0.9985109,0.01985408,0.01411888,-0.03876491,-0.04854083,0.01164489,0.10161574,0,0,0,0,1,1
5,0.35,18,1.01911011,0.16764191,-0.00883058,1.9837513,-15.65004539,1.04003906,-10.16954041,71.31803131,-86.84594717,1.09388851,4.01783775,-5.10046005,0.99819716,-0.01980563,-0.0341891,0.04510177,-0.10675137,0.04549694,0.01750599,0,0,0,0,1,1
1,0.35,17,0.15750089,-1.01951503,0.0836581,17.11318649,-18.11877441,6.31314839,-44.08067703,1.01309163,-103.5369797,-1.94798064,1.10081697,1.05787181,0.99964107,0.01716414,-0.01817173,-0.00954016,-0.01615181,0.05937079,0.04446381,0,0,0,0,1,1
1,0.3501,16,0.05946135,-1.00411703,0.0775594,16.63814545,-6.75144053,-19.34318651,-55.51008606,-14.73153441,-81.63665771,0.59988886,-7.54376316,-1.97066033,0.9976787,-0.00409164,0.06586339,0.01681459,-0.11195979,0.05783573,0.01538075,0,0,0,0,1,1
3,0.3599,33,1.04546113,0.07710154,0.01469786,7.60671616,-11.53809643,-4.41566681,-19.81876564,75.44577789,-66.17948151,-3.41115917,-1.68979191,4.4616379,0.99855113,0.01881018,0.01460104,-0.03810797,-0.04414589,0.01718676,0.05097475,0,0,0,0,1,1
5,0.36,19,0.99151631,0.10756783,-0.03453141,-1.31015871,-17.1546669,3.31563819,-10.16954041,71.06109619,-87.19671394,1.1170111,4.1303997,-5.04045057,0.99816459,-0.01098601,-0.03514111,0.0446348,-0.15858461,0.04009551,-0.01877114,0,0,0,0,1,1
1,0.36,18,0.08569919,-1.01411893,0.10637318,14.47610487,-17.09001913,5.34396839,-44.40111168,0.70154913,-103.3031135,-1.81589865,1.05175464,0.8730334,0.99968141,0.01606671,-0.01778854,-0.00790179,0.0418753,0.07064459,0.0337663,0,0,0,0,1,1
1,0.3601,17,0.11668971,-1.00737453,0.06144193,15.86179678,-11.08515453,-18.71184944,-55.51008606,-14.73153441,-81.63665771,0.76490194,-7.35395611,-1.09056783,0.99776107,-0.00549013,0.06414073,0.01777667,-0.16547436,0.03981591,0.01151436,0,0,0,0,1,1
3,0.3699,34,1.00191963,0.03619506,-0.03538857,3.13601901,-9.90843105,-5.61141937,-10.01338409,75.97193909,-65.74101157,-3.31598591,-1.75786133,4.44160031,0.99856836,0.01797116,0.01515718,-0.03801737,-0.07631968,0.08958666,0.00514915,0,0,0,0,1,1
5,0.37,30,0.98633195,0.07765914,-0.05614614,-7.37383699,-18.89165497,6.06031656,-10.15713457,71.49341346,-86.87518311,1.34941983,4.16163185,-4.9101016,0.99814475,-0.01106401,-0.03616846,0.04364581,-0.189473,0.04437934,-0.04475889,0,0,0,0,1,1
1,0.37,19,0.10110733,-1.00969553,0.15603983,11.43701316,-13.07647991,5.03007411,-44.15606537,0.6138556,-103.1569671,-1.71885931,1.00681181,0.73087788,0.99971091,0.01519563,-0.01741338,-0.00664055,0.01363317,0.11931654,0.01398536,0,0,0,0,1,1
3,0.3799,35,0.98158966,0.0111131,-0.09590639,-1.35480331,-8.58446598,-7.83696938,-19.84799767,76.49810018,-66.17948151,-1.83391799,-1.8846431,5.57713461,0.99856567,0.01518114,0.01710176,-0.04837476,-0.07964417,0.14371011,-0.01510985,0,0,0,0,1,1
5,0.38,31,0.98991454,0.08115863,-0.11161196,-11.71175503,-10.41459846,9.19900799,-19.61414719,69.80415344,-87.1844161,1.46191813,4.41776489,-4.75656319,0.99811806,-0.01305084,-0.03769693,0.04118553,-0.10830178,0.09463111,-0.04771336,0,0,0,0,1,1
1,0.38,30,0.15144378,-0.98917873,0.10697479,9.76311447,-6.70139408,4.96554089,-44.10990906,0.90616781,-101.9815816,-1.64049851,1.95943558,0.65365785,0.99973375,0.01441075,-0.01701478,-0.00594756,-0.01773373,0.16991858,0.01135007,0,0,0,0,1,1
3,0.3899,36,0.9615013,-0.01486308,-0.06745916,-13.66686149,-6.40715374,-11.97913361,-19.43876076,76.16415171,-65.507164,-1.79768336,-1.00611916,5.71095103,0.99849188,0.0147916,0.01816551,-0.0496159,-0.10730411,0.1001107,-0.04017451,0,0,0,0,1,1
5,0.39,31,0.99580651,0.13386795,-0.14986768,-11.91368103,-10.93981315,13.16771545,-19.61414719,69.80415344,-87.1844161,4.51418686,6.39104164,-3.57190967,0.99711704,-0.04103936,-0.05445633,0.03318777,-0.1695518,0.14091007,-0.03085369,0,0,0,0,1,1
1,0.39,31,0.18186933,-0.97476703,0.11836699,7.77980375,-1.37156837,4.96871901,-44.51914597,0.13384975,-101.5713496,-1.56516913,1.91011894,0.63110037,0.99975145,0.01374881,-0.01659111,-0.00573461,-0.06103809,0.19084734,0.00105794,0,0,0,0,1,1
3,0.3999,37,0.9611415,0.0308499,-0.08739865,-16.16313471,-3.10803618,-15.66119807,-19.43876076,76.16415171,-65.507164,-1.80105507,-1.16014338,5.88817596,0.99839461,0.01471496,0.01961956,-0.05105007,-0.06117414,0.114834,-0.03709448,0,0,0,0,1,1
5,0.4,33,0.93418861,0.19001135,-0.19806097,-10.91486381,-18.39801015,16.94841194,-19.99415398,69.59953308,-87.51816477,4.58451843,6.61359453,-3.41059445,0.99701193,-0.04163161,-0.05641886,0.03107843,-0.0957141,0.18111441,-0.07593195,0,0,0,0,1,1
1,0.4,31,0.19056111,-0.96489483,0.14600439,7.71419943,0.11550754,4.87114756,-44.51914597,0.13384975,-101.5713496,0.63393778,1.63395919,0.51575816,0.99971104,-0.00541716,-0.01300791,-0.00437141,-0.06695641,0.19851169,-0.00690606,0,0,0,0,1,1
1,0.4001,18,0.10080746,-1.05711857,0.10616747,11.63341953,-13.083004,-11.7849617,-54.45775986,-15.78485775,-81.3735733,1.99618387,-4.71591473,-1.81114006,0.99871874,-0.01639007,0.04155079,0.01378841,-0.09944046,0.06118749,0.06696747,0,0,0,0,1,1
3,0.4099,38,0.96096098,0.09463308,-0.09748853,-19.15078354,-0.60015871,-17.98607445,-19.58491707,76.16415171,-65.71177673,-1.83548111,-1.33346195,6.0840497,0.99817319,0.01491059,0.01118041,-0.05171491,-0.00080711,0.11831634,-0.03183951,0,0,0,0,1,1
5,0.41,34,0.8615545,0.18133196,-0.17947018,-6.96181196,-14.87463379,18.15610613,-19.00019181,70.76878357,-87.51816477,4.61679671,6.83444013,-3.31867671,0.99691053,-0.04100138,-0.05836605,0.03118684,0.01740418,0.10478153,-0.11616918,0,0,0,0,1,1
1,0.41,33,0.18745483,-0.96743089,0.17810893,8.05561591,1.15511637,4.11903013,-44.18519739,1.05131381,-101.630806,0.7151593,1.59189715,0.51788341,0.99971511,-0.00613703,-0.01164416,-0.00437698,-0.0547114,0.10146405,-0.00900181,0,0,0,0,1,1
1,0.4101,19,0.04796949,-1.04191138,0.07404195,11.61893867,-18.89554977,-10.4314537,-54.45775986,-15.78485775,-81.3735733,1.11186139,-4.60168164,-3.00435185,0.99869978,-0.01736346,0.04061747,0.01544911,-0.04594067,0.01711393,0.04708115,0,0,0,0,1,1
3,0.4199,39,0.91199119,0.11690556,-0.06975416,-18.01107947,3.19481131,-19.97535515,-19.35106659,76.38117118,-65.71177673,-1.90901446,-1.51167504,6.1666135,0.99814463,0.01541655,0.01188707,-0.05417135,0.01839635,0.08931371,-0.08011117,0,0,0,0,1,1
1,0.41,34,0.1836168,-0.98819104,0.11813963,5.94959116,3.73311487,3.7170651,-44.78111656,0.78914191,-101.4846497,0.77879351,1.55194183,0.54676371,0.99971831,-0.00668819,-0.01119971,-0.00461876,-0.05004343,0.04891001,0.00806703,0,0,0,0,1,1
5,0.41,35,0.77487153,0.3348375,-0.01479813,-5.81154791,-8.13078594,16.1168193,-19.51645493,71.13648071,-86.81671906,4.61959457,7.01071161,-3.14758434,0.99684781,-0.04194113,-0.05991771,0.03071391,0.16091035,0.07916856,-0.16130113,0,0,0,0,1,1
1,0.4101,30,0.06145591,-1.01816846,0.07699493,10.76996708,-14.19791651,-8.81133938,-54.48699188,-14.79099655,-81.40894318,1.11061539,-4.50753498,-3.15049519,0.99868131,-0.01817415,0.03983553,0.01670163,-0.05869091,0.01837585,0.03450464,0,0,0,0,1,1
3,0.4199,40,0.87301934,0.11957518,0.03953,-11.57015146,6.16785431,-10.17891501,-19.90645981,76.31170813,-65.94563193,-1.64676976,-3.0360496,6.00169991,0.99804401,0.01166911,0.01765667,-0.05170743,0.01700587,-0.01619153,-0.11867377,0,0,0,0,1,1
1,0.43,35,0.18045791,-0.99746111,0.16579773,0.14179645,7.4891119,4.11317848,-44.16837311,-0.10461853,-101.3091651,0.79071003,1.50484371,0.61767107,0.99971361,-0.00678063,-0.01189348,-0.00513794,-0.04663139,0.08535713,0.01936799,0,0,0,0,1,1
5,0.43,36,0.69681776,0.41615494,0.1118907,-5.80144881,1.06557198,11.54496479,-19.4971119,71.76164191,-86.61109869,4.5458765,7.11578894,-3.1034955,0.99681891,-0.04130119,-0.06087756,0.03033651,0.31845111,0.00515179,-0.19153176,0,0,0,0,1,1
1,0.4301,31,0.10938708,-1.01493168,0.08466471,10.44111101,-11.45577516,-7.09195614,-54.39919961,-15.01484608,-81.84741111,1.78567981,-3.13746419,-3.16171774,0.99891014,-0.01348373,0.01891037,0.01776168,-0.10088179,0.03134438,0.01479661,0,0,0,0,1,1
3,0.4399,41,0.85485101,0.18808988,0.07915611,-13.37563515,8.16955853,-19.35314097,-19.58491707,76.0011673,-65.68154851,-1.77767177,-3.10860018,6.13668766,0.99787158,0.01166948,0.01916494,-0.05368361,0.06458609,-0.05171719,-0.13131856,0,0,0,0,1,1
1,0.44,36,0.11145381,-0.9991004,0.17946133,-3.54353786,9.16905631,4.61511131,-44.66530118,0.6138556,-101.6015778,0.76719399,1.45138168,0.70914497,0.99973059,-0.0065618,-0.01143114,-0.00604451,-0.08911919,0.09905148,0.01567717,0,0,0,0,1,1
5,0.44,37,0.66904901,0.48170071,0.11495146,0.19187539,4.89497709,7.51868651,-19.4971119,71.76164191,-86.61109869,5.13765191,1.19335651,0.31780955,0.99881077,-0.04475803,-0.01914445,-0.0019113,0.35591114,0.01616111,-0.10433785,0,0,0,0,1,1
1,0.4401,31,0.09381151,-1.01411177,0.10691647,10.7479763,-14.15381767,-6.03165388,-54.3700676,-15.55100811,-81.35047913,1.88978767,-3.1683774,-3.40871739,0.9988786,-0.0143717,0.01837444,0.01901466,-0.0685761,0.04673433,0.01111056,0,0,0,0,1,1
3,0.4499,41,0.81085561,0.3046754,0.13438175,-15.1540493,8.97193568,-18.418936,-19.81876564,76.14731361,-65.33177185,-1.9185493,-3.36961118,6.48988581,0.99768381,0.01375086,0.03078548,-0.05581419,0.17360693,-0.11694655,-0.15844041,0,0,0,0,1,1
5,0.45,38,0.61871313,0.54786777,0.11691167,10.37188761,11.51573181,1.15508173,-19.46799088,71.64571381,-86.69979095,5.05116755,1.16111334,0.1791608,0.99885051,-0.04403768,-0.01891837,-0.00073007,0.36016161,0.04514891,-0.11887865,0,0,0,0,1,1
1,0.4501,33,0.05156065,-1.01594459,0.13703196,10.00165749,-13.6474514,-5.19619799,-54.57468414,-15.08330917,-80.88178198,1.98638701,-3.10771104,-3.54945445,0.99883538,-0.0151966,0.01790117,0.0301417,-0.01437651,0.0749681,0.03097691,0,0,0,0,1,1
3,0.4599,43,0.79011685,0.31168597,0.14570431,-13.63653183,8.04754448,-11.80139196,-19.81876564,76.14731361,-65.33177185,-3.04156811,-3.4759891,6.7155435,0.99751449,0.01471198,0.03181171,-0.05780618,0.17811544,-0.11711168,-0.18851563,0,0,0,0,1,1
5,0.46,39,0.63606477,0.51013316,0.09349484,15.84411144,13.78196907,-3.16054764,-19.73107338,71.31417197,-87.13815989,4.90319075,1.04809618,-0.04433437,0.99891479,-0.04177619,-0.01783915,0.00115097,0.31449834,0.05196615,-0.13581058,0,0,0,0,1,1
1,0.46,37,0.37181744,-0.96888351,0.11181314,-10.17158163,3.94671966,1.41541119,-43.93451071,0.935399,-101.4846497,1.98553693,4.60453844,-1.41773318,0.99895668,-0.0178113,-0.03994651,0.01314303,-0.10311144,0.11171816,0.01440777,0,0,0,0,1,1
1,0.4601,34,0.05574651,-1.01511814,0.16134841,7.93661161,-11.31503033,-4.04548693,-54.57468414,-15.08330917,-80.88178198,3.06180875,-3.05988931,-3.66603017,0.99879801,-0.01584794,0.01753073,0.03115069,-0.01846477,0.09891488,0.01081693,0,0,0,0,1,1
3,0.4699,44,0.73138605,0.15881113,0.15657641,-13.60889053,1.93186037,-1.16971914,-10.11800155,76.84887695,-64.98100181,-3.09050488,-3.47813787,6.85978651,0.99743509,0.01509075,0.03189589,-0.05896093,0.11778677,-0.11966671,-0.15035596,0,0,0,0,1,1
5,0.47,40,0.71950711,0.43043119,0.04310311,13.43475713,33.78071113,-5.71171133,-10.05161611,71.55801155,-86.87518311,4.69957304,1.87591089,-0.3694368,0.99901795,-0.04104703,-0.01611375,0.00389195,0.19680908,0.06568438,-0.18594617,0,0,0,0,1,1
1,0.47,38,0.38840863,-0.95951051,0.19659963,-11.10938168,-4.08943171,-1.75143898,-44.18519739,0.43846818,-101.4846497,1.86901535,4.61570953,-1.45678186,0.99896336,-0.01680795,-0.04014016,0.01335856,-0.110501,0.09907687,0.00484471,0,0,0,0,1,1
1,0.4701,35,0.07615744,-1.0011586,0.18346915,5.68886185,-9.7671596,-3.33875537,-54.45775986,-15.55100811,-81.16178687,3.11706901,-3.01006411,-3.76569366,0.99876696,-0.01630857,0.01711131,0.03111606,-0.04916839,0.11908118,0.00875194,0,0,0,0,1,1
3,0.4799,45,0.73173701,0.11101763,0.11455118,-7.79031134,-1.71170813,9.73041811,-10.11800155,76.70171064,-65.47791816,-5.46109676,-4.80175351,5.09154599,0.99709117,0.04569115,0.04391661,-0.04134314,0.08085445,-0.17355055,-0.15104431,0,0,0,0,1,1
5,0.48,41,0.7677359,0.36088374,-0.03387983,34.80195563,43.05766196,-8.66831875,-10.81161779,71.87957001,-86.90441131,4.4610343,1.64601004,-0.81880091,0.99910915,-0.03901879,-0.01407093,0.00778538,0.08680157,0.10855974,-0.17036837,0,0,0,0,1,1
1,0.48,39,0.33657071,-0.94058915,0.17867664,-11.39145987,-8.48604101,-5.19744778,-44.54837799,1.14001751,-101.3091651,1.74173561,4.68540573,-1.51598608,0.99895185,-0.01573785,-0.04066578,0.01391515,-0.16985416,0.0846344,-0.01975316,0,0,0,0,1,1
1,0.4801,36,0.07397817,-0.99934191,0.19860305,3.43779707,-10.03914941,-1.53110613,-54.69160843,-15.71639561,-81.14586639,4.55817141,-1.5699317,-3.63514117,0.99848336,-0.0390171,0.01365704,0.03079373,-0.04469359,0.11740797,0.00715455,0,0,0,0,1,1
3,0.4899,46,0.75115347,0.18874738,0.11316435,-6.40169947,-8.78178913,18.15195503,-19.84799767,75.67961646,-65.06869507,-5.36301041,-4.61395,5.14741659,0.99716997,0.04488936,0.04135491,-0.04193349,0.03061637,-0.1387081,-0.13047901,0,0,0,0,1,1
5,0.49,41,0.89930791,0.1054358,-0.064667,40.17784348,47.38570013,-9.98436069,-10.11800155,71.08418174,-87.10903168,4.88634815,3.54155113,-4.1571107,0.99790883,-0.04370016,-0.01931586,0.03753613,-0.09478435,0.06989016,-0.09167334,0,0,0,0,1,1
1,0.49,40,0.191807,-0.94153513,0.15840183,-8.46316733,-10.88110869,-8.07539558,-44.34375763,1.05131381,-101.9513544,1.64163697,4.77598858,-1.61898661,0.99891098,-0.01490011,-0.04145564,0.01471096,-0.01530475,0.06618093,-0.0318193,0,0,0,0,1,1
3,0.4999,47,0.70693457,0.1563634,0.16493117,4.99954081,-14.33314037,18.15491714,-19.81876564,76.38117118,-65.44869995,-5.18181135,-4.3633399,5.08499384,0.99734735,0.04344017,0.03999559,-0.04156374,-0.00006031,-0.18911979,-0.17883971,0,0,0,0,1,1
5,0.5,43,1.16195648,0.06866455,-0.11877387,39.74671173,38.98979187,-7.19818463,-10.11800155,71.08418174,-87.10903168,4.67611411,3.34810533,-4.65188687,0.99786949,-0.04193011,-0.01751071,0.04173168,-0.33311813,0.14411135,0.10033774,0,0,0,0,1,1
1,0.5,41,0.071706,-0.97066599,0.14074514,-4.94650745,-11.64778318,-8.59937477,-44.34375763,1.05131381,-101.9513544,1.01161615,3.18704461,1.5511198,0.99911085,-0.01701959,-0.01819014,-0.01175811,0.09115178,0.04619578,-0.01611171,0,0,0,0,1,1
1,0.5001,37,-0.01800551,-1.01918639,0.08644059,-1.81551111,3.91493367,-1.75064588,-54.15314331,-16.0479393,-81.1750946,4.55069351,-1.51798714,-3.66304316,0.99848616,-0.03896744,0.01319899,0.03105131,0.06481558,-0.00356416,0.018816,0,0,0,0,1,1
3,0.5099,48,0.81363737,0.11898111,0.15840003,9.01178191,-14.18561794,36.79487991,-19.81876564,76.38117118,-65.44869995,-4.98688698,-4.01136517,4.9763689,0.99756306,0.04191551,0.03690709,-0.04181057,0.07116456,-0.09341513,-0.15807615,0,0,0,0,1,1
1,0.51,41,-0.01335836,-1.01330351,0.11460667,-1.46360469,-10.44886111,-6.13198081,-44.71376633,1.08155513,-103.1446671,1.98385691,3.15855875,1.45581411,0.99911699,-0.01669138,-0.01879148,-0.0109154,0.170817,0.01149077,0.01541314,0,0,0,0,1,1
5,0.51,44,1.45336056,0.04681351,-0.50561053,31.59836197,11.6618951,-5.4871551,-10.49108505,71.63957977,-86.61109869,4.59331085,3.13410654,-5.01687454,0.99778837,-0.04115556,-0.01641168,0.04493075,-0.56341798,0.39505744,0.33116609,0,0,0,0,1,1
1,0.5101,38,0.15186115,-0.99501473,0.10039648,-4.15311145,9.01107447,0.88718771,-54.41851783,-15.63870139,-81.19101171,4.51137877,-1.54511919,-3.57090163,0.99851091,-0.0386388,0.01340654,0.03015144,-0.11750966,0.01111634,0.00909567,0,0,0,0,1,1
3,0.5199,49,1.17960141,0.73913777,-0.44857156,31.89917946,-11.00531101,15.11063818,-19.7603035,76.08885956,-65.47791816,-4.79637141,-3.81078671,4.64810147,0.99780679,0.04043933,0.03488873,-0.03910401,0.61691689,0.44977564,0.33607717,0,0,0,0,1,1
1,0.51,43,-0.09575019,-1.06615889,0.11484101,-3.04150701,-4.49837399,-1.71716188,-44.51914597,1.34463608,-101.8061981,1.94750013,3.19011513,1.41660137,0.99913164,-0.01637816,-0.01905549,-0.01058777,0.14754119,0.01951143,0.06163616,0,0,0,0,1,1
5,0.51,45,1.5163083,0.01697897,-0.45631048,10.19319871,10.83798504,-7.34114088,-10.31569671,71.34716715,-86.758155,4.58164358,3.13818116,-5.14883413,0.99771841,-0.04116761,-0.01550113,0.04681831,-0.58415051,0.34157865,0.40151167,0,0,0,0,1,1
1,0.5101,39,0.16173466,-0.99186778,0.10846935,-3.91818189,4.88976336,3.11953367,-54.69160843,-15.5801393,-81.49663544,4.47390031,-1.58185791,-3.51104704,0.99853951,-0.03831107,0.01370043,0.01981065,-0.11679473,0.01999519,0.01466199,0,0,0,0,1,1
3,0.5199,50,1.31497717,0.56496691,-0.59415611,50.00486755,-16.13016619,11.31975674,-19.73107338,76.1180954,-65.56561041,0.78391773,-5.6551844,-1.46041775,0.99868131,-0.00610336,0.04941354,0.01139094,0.46107691,0.58667076,0.36011618,0,0,0,0,1,1
1,0.53,44,-0.16115415,-1.09419419,0.10630588,-5.44483805,6.97379589,0.81610691,-44.34375763,0.87693655,-101.9513544,1.90357399,3.17478909,1.48984111,0.99911814,-0.01597963,-0.01891409,-0.01113985,0.31610966,-0.00015177,0.08137195,0,0,0,0,1,1
5,0.53,46,1.40000033,-0.13657431,-0.13333919,7.33013357,6.83838081,-11.547915,-19.87711778,71.84410013,-86.64133453,4.58915056,3.01070113,-5.33156388,0.9977131,-0.04110198,-0.01435895,0.04751591,-0.59453981,0.07057119,0.16584315,0,0,0,0,1,1
1,0.5301,40,0.15011815,-1.03436983,0.14115735,-4.71963138,-0.87811514,6.41103148,-54.57468414,-15.46331501,-81.31115091,5.05565919,-0.47581813,-5.1967,0.99795973,-0.04386546,0.00618169,0.04597765,-0.10337485,0.05031577,0.05640588,0,0,0,0,1,1
3,0.5399,51,1.18363716,0.06188871,-0.60580808,61.17611541,-16.41381408,10.16810036,-19.58491707,75.94170315,-65.85793304,1.06864083,-5.46305656,-1.05881115,0.99866718,-0.00845718,0.04781368,0.0175001,-0.05013411,0.57864094,0.1944167,0,0,0,0,1,1
1,0.54,45,-0.18996191,-1.1006887,0.08386195,-9.68783665,11.06601478,4.03980111,-44.0111168,1.14001751,-101.6600418,1.83755167,3.11348453,1.70356174,0.99911071,-0.01536183,-0.01840598,-0.01311905,0.34345514,-0.01197599,0.08480088,0,0,0,0,1,1
5,0.54,47,1.13681785,-0.18360151,-0.04557708,-3.34496784,1.71055686,-9.97443195,-19.7603035,71.71717103,-87.05056763,1.64667773,7.89519835,-8.99361801,0.99416655,-0.01836501,-0.06680746,0.0797817,-0.5711813,-0.15411731,0.09651116,0,0,0,0,1,1
1,0.5401,41,0.11063763,-1.00309153,0.15159315,-5.51015343,-4.06657119,9.11837196,-54.45775986,-15.34638977,-81.61356354,4.99781941,-0.56198137,-5.3415947,0.99796181,-0.04331376,0.00693455,0.04633847,-0.13938858,0.05368136,0.01104891,0,0,0,0,1,1
3,0.5499,51,1.15133977,-0.41193311,-0.31385364,35.53897858,-10.81011331,13.04805374,-19.70184135,76.41040801,-65.79947661,1.15741109,-5.13883867,-1.4011816,0.99868615,-0.01000143,0.04591845,0.01041907,-0.55461776,0.3471753,0.11691014,0,0,0,0,1,1
1,0.55,46,-0.16317901,-1.07715799,0.05873355,-11.95139449,31.06051017,5.80033107,-44.57761001,1.1177111,-101.6600418,1.08748915,0.00119315,8.83043575,0.99698746,-0.00946035,-0.00074966,-0.07698017,0.19964511,-0.04114939,0.0616475,0,0,0,0,1,1
5,0.55,48,1.14340319,-0.18665301,0.01988761,-5.8611011,3.41800511,-5.48489137,-19.7603035,71.71717103,-87.05056763,1.61888885,7.81848549,-8.94159161,0.9941471,-0.01813658,-0.06615344,0.07931846,-0.36954468,-0.14491685,0.04799786,0,0,0,0,1,1
1,0.5501,41,0.14019406,-1.01113461,0.1501737,-5.89188337,-3.05416574,11.11685585,-54.45775986,-15.34638977,-81.61356354,4.93694544,-0.67118187,-5.3780179,0.99796671,-0.04174694,0.00786583,0.04661849,-0.07036798,0.0533043,0.014391,0,0,0,0,1,1
3,0.5599,53,1.08811799,-0.51330334,-0.08108836,1.14144864,-1.0989933,16.85617937,-19.4971119,76.1180954,-66.0333151,1.18818583,-5.07119853,-1.40797134,0.99874735,-0.0101981,0.0444731,0.01049175,-0.66399854,0.11419911,0.05564581,0,0,0,0,1,1
5,0.56,49,1.06613065,-0.01750315,0.01401519,-5.43947077,3.40981113,-0.9163835,-10.16954041,71.14878845,-86.61109869,1.59145681,7.80340481,-8.89985085,0.99430078,-0.01777915,-0.06607134,0.07891177,-0.10408356,-0.0651748,0.01091907,0,0,0,0,1,1
1,0.5601,43,0.08864117,-1.0193845,0.15109503,-7.1563405,-1.15083431,13.0166111,-54.34083557,-17.86017517,-81.16178687,4.8638196,-0.80015159,-5.39615345,0.99798149,-0.04105561,0.00896591,0.04673341,-0.01035641,0.05611884,0.01845171,0,0,0,0,1,1
3,0.5699,54,1.06110567,-0.14413196,-0.03616588,-10.15093174,8.11319541,6.07308101,-19.4971119,76.1180954,-66.0333151,1.19863114,-5.00510611,-1.30888195,0.99879807,-0.00956806,0.04386405,0.01967048,-0.19931669,0.03018357,0.0541605,0,0,0,0,1,1
5,0.57,50,0.9941317,0.11317891,0.01931119,-1.90943741,-1.83305097,3.67601538,-10.40339088,73.16574097,-86.90441131,1.58791806,7.8431797,-8.86994076,0.99419818,-0.01774885,-0.06641691,0.0786666,-0.05471193,-0.01731679,-0.00611481,0,0,0,0,1,1
1,0.5701,44,0.05733098,-1.0108664,0.158953,-8.19614161,-3.18959394,13.50946617,-54.31160355,-15.84331085,-81.14586639,4.77898788,-0.93110483,-5.43498087,0.99799001,-0.04115886,0.01009448,0.04701981,0.00788114,0.06458109,0.01745908,0,0,0,0,1,1
3,0.5799,55,1.01959169,0.11136919,0.01815111,-0.05103114,11.513983,1.19643846,-19.1341413,76.08885956,-66.64717865,0.37861589,-4.91564655,-1.11518118,0.99901903,-0.00184131,0.04191655,0.01053995,-0.04790055,-0.0468311,0.01855104,0,0,0,0,1,1
5,0.58,51,0.91706049,0.15661117,0.06835007,-1.88800073,-7.14993515,7.54496098,-10.16954041,71.69804381,-86.71901679,1.61461711,7.94046974,-8.81788467,0.99416085,-0.01801989,-0.06716313,0.07833191,0.10081001,0.00546009,-0.03678808,0,0,0,0,1,1
1,0.5801,45,-0.01445066,-1.01911715,0.16339384,-9.08978081,-6.15984197,13.43176841,-54.66138011,-15.10013346,-81.46740713,5.19009581,-1.60016584,-1.61719198,0.99844098,-0.04560687,0.01371133,0.01176035,0.07111743,0.06790456,0.01048536,0,0,0,0,1,1
3,0.5899,56,0.97610505,0.19544511,0.00968579,14.81631065,14.41086674,1.54641113,-18.59105491,75.61116141,-66.16717377,0.17744814,-4.87315989,-1.48317635,0.99901061,-0.00186856,0.04154113,0.01181811,0.04076341,-0.03647867,-0.00911165,0,0,0,0,1,1
5,0.59,51,0.8653636,0.37913959,0.11857391,-6.19039488,-8.81401371,8.63371468,-10.05161611,71.67494965,-86.87518311,1.8794384,5.03416075,-7.61198965,0.99643743,-0.01796391,-0.04113853,0.06748997,0.13143855,0.0110815,-0.04605553,0,0,0,0,1,1
3,0.5999,57,1.00851881,0.11476811,0.00316537,33.8875618,17.17079163,1.90115118,-19.16337141,75.97193909,-66.09178161,0.1610778,-4.83416461,-1.83389068,0.99898137,-0.00073805,0.04119069,0.01591913,-0.04001686,-0.0193659,0.01751861,0,0,0,0,1,1
3,0.6099,58,1.01169959,0.00717633,0.0043434,16.17631103,16.35961486,-0.33857715,-19.78953551,75.5919341,-65.94563193,0.04035315,-4.81913853,-1.10711908,0.99894714,0.00041116,0.04104186,0.01835598,-0.14716543,-0.00661584,0.01430861,0,0,0,0,1,1
1,0.61,47,0.14347011,-0.95530861,-0.05485041,-7.11744547,13.31788816,6.74965191,-44.16837311,0.90616781,-103.975441,-0.80461597,1.04411784,9.97941971,0.99613887,0.00778719,-0.00846703,-0.08703478,-0.13968811,-0.10444444,-0.03135198,0,0,0,0,1,1
3,0.6199,59,1.00038481,0.04493468,0.08531911,1.41497873,14.50017657,-3.15806031,-19.78953551,75.5919341,-65.94563193,-0.10134841,-4.83464909,-1.1415174,0.99893463,0.00168039,0.04115368,0.0187081,-0.11719111,-0.0889079,0.0040065,0,0,0,0,1,1
1,0.61,48,0.18591937,-0.95359719,-0.07769571,-4.80387159,18.74003983,6.81344617,-44.13914108,0.87693655,-104.4431458,-0.83301414,0.96634895,10.16657734,0.99599987,0.00798776,-0.00775541,-0.08865931,-0.18364973,-0.11657134,-0.0318158,0,0,0,0,1,1
3,0.6199,60,0.9800917,0.1717617,0.13118169,-17.74543571,13.383955,-4.87135167,-19.10491018,75.65039061,-66.44155819,-1.98957157,-5.47946787,1.78535688,0.99859811,0.01659488,0.04805631,-0.01471963,0.00160171,-0.13911189,-0.00753141,0,0,0,0,1,1
1,0.63,49,0.31153488,-0.94765049,-0.1016518,-3.91910768,14.63351103,5.19555711,-44.0111168,1.08155513,-104.0046768,-0.85705018,0.90693408,10.3119549,0.99588865,0.0081599,-0.00710999,-0.08991967,-0.11101113,-0.14961071,-0.03706761,0,0,0,0,1,1
3,0.6399,61,0.98457378,0.16841116,0.11161375,-19.61378693,11.66461131,-4.19576836,-19.38019861,75.70885468,-65.79947661,-1.15111194,-5.50058174,1.97397506,0.99853951,0.01791107,0.04819059,-0.01630185,0.08985108,-0.11385758,0.00486443,0,0,0,0,1,1
5,0.64,53,0.98178905,0.113393,0.17719115,5.70735979,-1.87171751,-6.16160107,-10.14031019,71.05495453,-87.10903168,1.63118641,4.81160616,-8.09800816,0.99647778,-0.01716473,-0.04094997,0.0711376,0.03857818,-0.11133491,0.0117705,0,0,0,0,1,1
1,0.64,50,0.316484,-0.95857036,-0.11841595,-1.64971089,10.16711058,1.84130614,-41.91143036,-0.90616781,-104.5016098,-0.87304991,0.87335183,10.41499519,0.99580944,0.00817877,-0.00689811,-0.09081541,-0.11581617,-0.16675614,-0.01689413,0,0,0,0,1,1
3,0.6499,61,0.98801185,0.19313698,0.11311149,-10.94185734,10.18417106,-1.16884651,-19.61414719,76.10578766,-65.81870483,-1.17190733,-5.49803351,1.07649301,0.99850619,0.01891989,0.04830148,-0.01714475,0.11383581,-0.11577065,0.01007533,0,0,0,0,1,1
5,0.65,54,0.97059363,0.19989111,0.15311771,-1.9970175,-1.75961877,-7.11139614,-10.14031019,71.05495453,-87.10903168,1.67310108,4.76431561,-8.06600857,0.99651177,-0.01747514,-0.04043114,0.07086818,0.01683611,-0.07945467,0.00313557,0,0,0,0,1,1
1,0.65,51,0.18338183,-1.00793564,-0.10154645,-1.50511993,4.34416069,0.16719195,-43.40835953,0.6138556,-104.5600661,-1.36878848,1.51800798,9.45609093,0.99610414,0.01141161,-0.01017613,-0.08184307,-0.17141048,-0.14651373,0.01075176,0,0,0,0,1,1
1,0.6501,46,-0.01800793,-0.97651686,0.04414077,-16.93135779,14.50111915,-4.18157711,-55.0413851,-15.84331085,-81.54895781,4.07648134,-3.93946576,-0.1010636,0.99877751,-0.03551488,0.03438144,-0.00033189,0.03667561,-0.03790186,-0.01340401,0,0,0,0,1,1
3,0.6599,63,1.00040555,0.16118411,0.11751594,1.66401851,8.84349537,1.07348037,-19.7603035,75.67961646,-65.71177673,-1.35394406,-5.46871376,1.0517111,0.99850804,0.01965957,0.04805519,-0.01690841,0.08117139,-0.11499175,0.01031651,0,0,0,0,1,1
5,0.66,55,0.94177777,0.13878591,0.14348383,-9.19186149,-0.13088685,-8.11119347,-10.01338409,71.44110107,-86.96187537,1.68811168,4.68933678,-7.96786918,0.99659836,-0.01751514,-0.03978485,0.07001114,0.05386883,-0.05415651,-0.01479111,0,0,0,0,1,1
1,0.66,51,0.15019518,-1.03803551,-0.08081753,-1.50969815,0.73653501,-0.81639711,-43.40835953,0.6138556,-104.5600661,-1.39165537,1.53617787,9.46586117,0.99609077,0.01161766,-0.01031797,-0.08193357,-0.11380674,-0.1081386,0.0503104,0,0,0,0,1,1
1,0.6601,47,-0.00185904,-0.96977168,0.03148649,-15.69761411,16.1461319,-4.99090481,-55.11777344,-15.71639561,-81.13971473,3.91186356,-3.91154431,0.17580754,0.99881915,-0.03415038,0.03405553,-0.00170011,0.01051714,-0.04679194,-0.01841115,0,0,0,0,1,1
3,0.6699,64,1.0188539,0.11767831,0.11185683,11.75471878,7.15661469,3.59351659,-19.19160445,76.1180954,-65.85793304,-1.40116851,-5.43017435,1.91851055,0.99853331,0.01013785,0.04770471,-0.01581316,-0.05133716,-0.09461775,0.0196057,0,0,0,0,1,1
5,0.67,56,0.91951316,0.16686078,0.14584188,-13.98444171,0.91556494,-8.64840698,-10.1864666,71.46418761,-87.31365104,1.68401515,4.60331678,-7.81780933,0.99671501,-0.01739014,-0.03906046,0.06878375,0.08111894,-0.04414869,-0.0184111,0,0,0,0,1,1
1,0.67,53,0.11133093,-1.0176885,-0.06731703,-4.61005068,-1.07661868,-1.13983679,-44.19760131,1.11078631,-104.4431458,-1.43966699,1.55800366,9.45971538,0.99608135,0.01305084,-0.01048491,-0.08189117,-0.08559919,-0.09319101,0.03840714,0,0,0,0,1,1
1,0.6701,48,0.05014193,-0.97086631,0.01616911,-13.83537006,17.59679111,-5.17470446,-54.83776474,-15.01484608,-81.4905014,3.78610481,-3.881041,0.46579665,0.99886835,-0.0331531,0.03370903,-0.0051789,-0.04083163,-0.06055701,-0.01355114,0,0,0,0,1,1
3,0.6799,65,1.00053477,0.03049173,0.11419099,10.09165041,6.81107394,3.37040377,-19.19160445,76.1180954,-65.85793304,-3.11064004,-3.48770809,1.89984965,0.99886733,0.0164383,0.03109894,-0.0144538,-0.13656443,-0.07168481,0.00415503,0,0,0,0,1,1
5,0.68,57,0.93441468,0.1738854,0.11689053,-13.87471153,0.61907413,-8.90147536,-10.31569671,71.75650014,-86.93364716,1.68373358,4.51637363,-7.68763161,0.99681917,-0.01718951,-0.0383155,0.06755516,0.07634107,-0.0139915,-0.0144783,0,0,0,0,1,1
1,0.68,54,0.17841987,-1.00585556,-0.05954064,-5.0075655,-0.19390751,-3.48816647,-44.37198965,0.84770536,-104.530838,-1.48935747,1.59311771,9.46303368,0.99606138,0.01350847,-0.01075353,-0.08193596,-0.04411173,-0.08311016,0.01348565,0,0,0,0,1,1
1,0.6801,49,0.0671183,-0.98597878,-0.00767605,-11.11116749,17.60816574,-4.58734311,-53.7169783,-16.01870718,-81.81104114,1.66644669,-3.19771861,0.03711105,0.99933981,-0.01316703,0.01788661,-0.00097379,-0.05311488,-0.07810608,-0.00797638,0,0,0,0,1,1
3,0.6899,66,0.99707657,0.00358619,0.08175405,0.0166491,6.93414749,1.10661841,-19.73107338,75.4750061,-65.61408447,-3.18669195,-3.45949149,1.89346743,0.9988606,0.01701111,0.03086558,-0.01438717,-0.13415861,-0.01758806,-0.00117996,0,0,0,0,1,1
5,0.69,58,0.94915003,0.16815798,0.08797441,-9.5400877,1.06749149,-8.61396885,-19.99415398,71.81496419,-86.93364716,1.01059984,3.99505115,-7.71354103,0.99693169,-0.01991568,-0.03358671,0.06781438,0.04741197,0.00705633,-0.00751646,0,0,0,0,1,1
1,0.69,55,0.11451616,-0.99886554,-0.07119307,-5.54089308,4.17959356,-4.46518196,-44.18519739,0.96463019,-104.0046768,-1.5384316,1.63701773,9.5106144,0.99600716,0.01397519,-0.01108967,-0.08336613,0.01946614,-0.09363494,0.00017119,0,0,0,0,1,1
1,0.6901,50,0.08160413,-0.99561799,-0.01958174,-10.13614845,18.07739639,-1.77467179,-54.54545111,-14.55714703,-83.30897511,1.5716116,-3.18608785,0.31671899,0.99935603,-0.01151014,0.0177191,-0.00347316,-0.05789816,-0.07533696,0.00118035,0,0,0,0,1,1
3,0.6999,67,0.99481198,0.08515301,0.06400178,-11.91887951,6.45888319,0.19918188,-19.84799767,75.88414683,-65.68154851,-3.16553679,-3.44401383,3.00751354,0.99881101,0.01768137,0.03077501,-0.01536414,-0.05071717,-0.01661045,0.00110544,0,0,0,0,1,1
5,0.7,59,0.99185197,0.191401,0.01037107,-1.68971778,1.18141514,-6.34757614,-19.99415398,71.81496419,-86.93364716,1.01957964,3.93130875,-7.68511486,0.99696785,-0.01995856,-0.03303176,0.06757116,0.01533964,0.08196166,0.01989699,0,0,0,0,1,1
1,0.7,56,0.06614101,-0.99718708,-0.0640091,-8.94909763,8.7616806,-4.11545897,-43.51518381,1.18617358,-104.3161177,-3.41970777,1.76695907,8.449646,0.99668354,0.03097591,-0.01316588,-0.07408866,0.06411356,-0.08158091,-0.00517198,0,0,0,0,1,1
1,0.7001,51,0.10418443,-0.98047417,-0.03034307,-9.81177584,18.15587134,-0.94198151,-54.54545111,-14.55714703,-83.30897511,1.47998161,-3.19131101,0.61574198,0.99936016,-0.01178116,0.01773149,-0.00597177,-0.08160938,-0.08430661,-0.01110585,0,0,0,0,1,1
3,0.7099,68,0.98759871,0.15550767,0.03751485,-13.71755146,6.80571653,-0.17374185,-19.19160445,74.51037598,-65.79947661,-3.35064363,-3.4316801,3.13957881,0.99877346,0.01839171,0.03071908,-0.01649551,0.0116468,0.00351417,-0.0009495,0,0,0,0,1,1
5,0.71,60,0.97911799,0.34139111,0.01679188,3.87930155,0.11415857,-1.49811365,-10.69570351,69.95030975,-86.67056174,1.04863,3.9095304,-7.71981478,0.99695063,-0.01011163,-0.03181494,0.06787559,0.06351995,0.09816487,0.0313518,0,0,0,0,1,1
1,0.71,57,0.04574179,-0.95857507,-0.0163619,-10.64383115,14.97938156,-3.30340004,-43.51518381,1.18617358,-104.3161177,-3.5173471,1.79965556,8.60851141,0.9965508,0.03177758,-0.01334956,-0.07548887,0.07017008,-0.01915819,-0.04166131,0,0,0,0,1,1
1,0.7101,51,0.11916359,-0.9811768,-0.06813801,-7.7594595,16.18015099,1.03989114,-54.51611391,-14.79099655,-83.6889801,1.40851831,-3.1168088,0.88137578,0.99935114,-0.01111391,0.01789946,-0.00818516,-0.10680703,-0.1108135,-0.00885109,0,0,0,0,1,1
3,0.7199,69,0.98360437,0.17160371,0.0453166,-9.48116534,6.18680186,0.13733374,-19.64337911,76.08885956,-65.85793304,-3.41370749,-3.41813506,3.11949696,0.99873745,0.01900781,0.03064156,-0.01716311,0.03815791,-0.0046457,-0.00383186,0,0,0,0,1,1
5,0.71,61,0.97468411,0.314096,0.08138689,7.09713168,0.80874658,0.11154073,-10.78339577,71.81496419,-87.05056763,1.05806088,3.91041731,-7.78999805,0.99690694,-0.0101143,-0.03181469,0.06848901,0.06811357,0.01799684,0.01815855,0,0,0,0,1,1
1,0.71,58,0.05466165,-0.90638393,0.01385763,-8.01447581,14.11793747,-1.34069314,-44.6945343,1.43131965,-104.9108419,-3.56786561,1.81131989,8.85701991,0.99636865,0.0311541,-0.0133566,-0.07765898,0.05718801,0.01550618,-0.09099609,0,0,0,0,1,1
1,0.7101,53,0.1631317,-1.00686431,-0.0777814,-6.94345903,19.9111374,1.15069499,-53.90136664,-14.73153441,-83.74744415,1.34367131,-3.149815,1.08537638,0.99933851,-0.01071034,0.01815543,-0.01004565,-0.13916418,-0.11948103,0.01813151,0,0,0,0,1,1
3,0.7199,70,0.9988451,0.15101983,0.08814874,-1.11197141,6.51050091,0.65185344,-10.14031019,76.08885956,-65.79947661,-4.00698757,-3.46511745,3.37310351,0.99853017,0.03403998,0.03113117,-0.01834451,0.01311634,-0.04165935,0.00994031,0,0,0,0,1,1
5,0.73,61,1.01019037,0.1494964,0.11033037,11.59451008,-0.07819014,3.60811019,-10.37415886,71.75650014,-86.99110358,1.07439017,3.94769691,-7.91341971,0.99681818,-0.01041391,-0.03310719,0.06957146,0.01119189,-0.01641459,0.05753059,0,0,0,0,1,1
1,0.73,59,0.06180039,-0.91454393,0.00944076,-4.3199799,30.41733574,1.19847908,-43.13197119,0.84770536,-105.1908478,-3.57450194,1.79813791,9.16403675,0.99615719,0.0313378,-0.01314197,-0.08031511,0.05080193,0.01091159,-0.08151654,0,0,0,0,1,1
1,0.7301,54,0.17094547,-1.00115101,-0.08088974,-4.0353055,13.99811168,3.05837393,-53.55159378,-16.69101669,-83.30897511,0.93011184,-1.74141043,-0.10119505,0.99985113,-0.00810117,0.01511163,0.00076817,-0.14111094,-0.11567471,0.01365599,0,0,0,0,1,1
3,0.7399,71,0.99639934,0.13111177,0.0639654,6.73931166,7.85551359,1.16183507,-10.14031019,74.77346039,-65.79947661,-4.07456303,-3.45014477,3.19935193,0.99853181,0.03465184,0.03109509,-0.01768731,-0.00417106,-0.00754679,0.00688697,0,0,0,0,1,1
5,0.74,63,1.0185585,0.17751393,0.1078171,18.05879401,-1.71655846,6.66541519,-10.11800155,71.90165656,-86.758155,1.41481865,4.7111183,-7.84138911,0.99670361,-0.01510514,-0.04016139,0.06883118,-0.04677817,-0.05310993,0.03568194,0,0,0,0,1,1
1,0.74,60,0.1001586,-0.97301608,0.01158786,-4.34573078,17.313797,4.74769783,-44.19760131,1.05131381,-105.4661399,-3.58538008,1.74981749,9.43989658,0.9959656,0.03141934,-0.01163635,-0.08171166,0.01713153,0.01014493,-0.01014976,0,0,0,0,1,1
3,0.7499,71,1.00369668,0.13971606,0.08179467,11.79143088,7.83466959,0.87779331,-19.99415398,74.71499634,-65.33177185,-4.1345005,-3.44141907,3.16533661,0.99854716,0.03511341,0.03100118,-0.01650575,0.00093146,-0.01497515,0.01461118,0,0,0,0,1,1
5,0.75,64,0.9857679,0.1468955,0.08083367,19.36677933,-1.79151671,7.81751116,-10.14031019,71.66880798,-87.13815989,1.45117466,4.79511705,-8.03071594,0.99655491,-0.01555914,-0.04084139,0.07048576,-0.06358181,-0.03374937,-0.00715186,0,0,0,0,1,1
1,0.75,61,0.10465954,-1.01551031,0.04943867,-6.15166701,10.77141179,8.17184915,-43.75913139,1.08155513,-105.3493118,-3.0198561,3.01467896,10.77537441,0.99481459,0.01878051,-0.01369817,-0.0945114,-0.07741611,0.04144301,0.04313789,0,0,0,0,1,1
3,0.7599,73,1.0005181,0.03869113,0.18915184,5.40464163,7.5054369,-0.88380319,-10.31569671,76.1180954,-65.507164,-4.10164191,-3.44718708,3.10633469,0.99853837,0.03581197,0.03104081,-0.01597159,-0.11075114,-0.11957479,0.00385838,0,0,0,0,1,1
5,0.76,65,0.9794389,0.14140499,0.04454108,16.86918558,-1.61587358,7.85710587,-10.14031019,71.66880798,-87.13815989,1.48063147,4.88151016,-8.19183867,0.99641788,-0.01591779,-0.04155181,0.07191315,-0.07988816,-0.00395771,-0.01947656,0,0,0,0,1,1
1,0.76,61,0.30331317,-1.04739951,0.06611594,-6.81176661,9.10913805,9.63691474,-43.75913139,1.08155513,-105.3493118,-3.08509911,1.91739416,10.87101013,0.99475443,0.01910016,-0.01178319,-0.09535104,-0.15768006,0.04968139,0.07496695,0,0,0,0,1,1
3,0.7699,74,0.99480816,0.01738754,-0.04377815,6.44031139,9.91607011,-1.18118371,-19.84799767,76.13501587,-65.33177185,-4.19481459,-3.46336889,3.03604817,0.99851085,0.03664031,0.03117936,-0.01531879,-0.09637307,0.11465675,-0.00075737,0,0,0,0,1,1
5,0.77,66,0.99065435,0.13011518,0.01433166,19.39068604,-1.19751348,7.83169739,-10.01338409,71.55188751,-87.60596466,1.51190078,4.96690311,-8.37988471,0.99616119,-0.01631141,-0.0411481,0.07355818,-0.10406318,0.01778695,-0.01591319,0,0,0,0,1,1
1,0.77,63,0.34631576,-1.0331815,0.08198059,-5.5559783,-4.6938777,8.66701698,-44.13914108,0,-105.1446915,-3.14714159,1.8315661,10.81907963,0.99479485,0.01966108,-0.01199754,-0.09497103,-0.10317614,0.06755085,0.06567188,0,0,0,0,1,1
1,0.7701,55,-0.01199931,-0.94856318,0.00363031,1.98548711,11.15668516,5.60697889,-53.40543747,-17.11949371,-83.10435486,1.01109867,-1.97347355,0.1997166,0.99981093,-0.0088608,0.01710486,-0.00189471,0.05317081,-0.01361118,-0.05467031,0,0,0,0,1,1
3,0.7799,75,1.01413131,0.00611543,0.03564345,-10.64378071,10.066431,-6.48598518,-10.31569671,75.97193909,-65.01013101,-3.18144839,-1.06369471,3.66755151,0.99895644,0.01717376,0.01888044,-0.03148161,-0.1116166,0.03461311,0.01600718,0,0,0,0,1,1
5,0.78,67,0.99147909,0.14146881,0.03961519,17.13113539,-1.19938459,7.81635069,-19.73107338,71.87957001,-87.48903656,1.53781939,5.05177784,-8.54535389,0.99611813,-0.01665141,-0.04194551,0.07501384,0.00160538,0.04308171,0.01047144,0,0,0,0,1,1
1,0.78,64,0.31974168,-1.00677705,0.07934903,-1.56367361,-17.64171164,6.06806374,-43.78836441,1.11078631,-105.4370041,-3.18731046,1.77197544,10.65386581,0.99494119,0.01991811,-0.01150141,-0.09344554,-0.18035537,0.06754954,0.03688936,0,0,0,0,1,1
1,0.7801,56,-0.01640891,-0.91718717,-0.00811311,6.30814041,19.51151108,4.671318,-54.07775497,-14.51791595,-83.45513153,0.30518344,-1.58689547,-0.73635711,0.99971147,-0.00151744,0.01158956,0.00636411,0.0517575,-0.03161831,-0.08610945,0,0,0,0,1,1
3,0.7899,76,1.00199117,0.14156013,-0.10837778,-11.97451115,14.19541599,-11.06815519,-10.31569671,75.97193909,-65.01013101,-3.3498404,-1.16111055,3.79118663,0.99886608,0.01858376,0.01980765,-0.03151695,0.04658171,0.14941186,0.01339798,0,0,0,0,1,1
5,0.79,68,0.95909786,0.33044553,0.11385917,11.83514404,-1.13383161,7.43083191,-19.93569183,71.61034393,-87.9567337,1.53180437,3.45388617,-9.48409171,0.9960019,-0.01581514,-0.01891515,0.08301661,0.11810598,0.00591418,0.0145574,0,0,0,0,1,1
1,0.79,65,0.14653514,-1.01053047,0.03647939,1.86391997,-30.73616018,1.31639165,-44.0111168,1.15694139,-105.1031555,-3.11087141,1.75197093,10.34548473,0.99518859,0.03005916,-0.01138946,-0.09076763,-0.1079849,0.01500543,0.03119505,0,0,0,0,1,1
1,0.7901,57,0.03177014,-0.93871143,-0.03439859,6.61044073,18.71693815,4.60717596,-54.07775497,-14.51791595,-83.45513153,0.37768775,-1.63598347,-0.55551411,0.99971873,-0.00318353,0.01301684,0.00477064,-0.00377198,-0.050149,-0.06098637,0,0,0,0,1,1
3,0.7999,77,1.10015141,0.16301111,-0.01360639,-11.87885666,19.91691131,-18.13614191,-10.08184814,76.13501587,-65.30154364,-3.58080673,-1.31161136,3.91537094,0.99874657,0.0305197,0.01111551,-0.03350764,0.14778593,0.04570418,0.11818781,0,0,0,0,1,1
5,0.8,69,0.93047547,0.33560931,0.16571769,11.51151775,0.76355101,5.16660404,-10.14031019,71.13033905,-87.86904144,1.53344083,3.50011519,-9.601758,0.99590343,-0.01588401,-0.0193111,0.08405381,0.11796141,-0.01945144,0.00189091,0,0,0,0,1,1
1,0.8,66,0.14681449,-1.03637433,-0.01449757,0.86511119,-35.54148483,-0.19888058,-44.3145156,1.37386717,-104.9108419,-3.69805479,1.38370967,9.38660717,0.9958576,0.03385189,-0.01808015,-0.08143059,-0.00831669,-0.01508565,0.04485114,0,0,0,0,1,1
1,0.8001,58,0.1013134,-0.93644989,-0.03546637,5.9376688,6.66101158,3.89560461,-54.11391119,-14.49868488,-83.33810343,0.43931509,-1.67605109,-0.49445069,0.99971116,-0.00373199,0.01336698,0.00411415,-0.07305573,-0.05141363,-0.05777379,0,0,0,0,1,1
3,0.8099,78,1.0895555,0.16500857,0.00656131,-0.18874083,17.98131169,-18.93851134,-10.57877731,76.51731849,-65.30154364,-3.77987099,-1.48161746,3.91446109,0.99866313,0.03111346,0.01175618,-0.03341315,0.14535487,0.01914451,0.10795484,0,0,0,0,1,1
5,0.81,70,0.94553881,0.16538777,0.1368184,15.38644695,4.05110699,1.30398655,-10.14031019,71.13033905,-87.86904144,1.51711356,3.50756693,-9.76161665,0.99578333,-0.01587559,-0.01935738,0.08545089,0.09306871,-0.11398741,0.00714917,0,0,0,0,1,1
1,0.81,67,0.04101015,-1.0506773,-0.04745413,-1.91985737,-31.10814585,-0.39163131,-44.89915085,1.75387311,-104.3846817,-3.75757694,1.38818349,9.07818117,0.99605711,0.03431361,-0.01816963,-0.0797606,0.09334394,-0.05111098,0.0477137,0,0,0,0,1,1
1,0.8101,59,0.11311018,-0.99181843,-0.04941008,8.5304718,-11.18549385,4.30853844,-54.75007148,-14.44011179,-84.01051094,0.5106901,-1.71675849,-0.61461931,0.99969435,-0.0044133,0.01373011,0.0053415,-0.08111841,-0.06811018,-0.00173951,0,0,0,0,1,1
3,0.8199,79,1.01004457,0.06563181,0.15016873,-3.81190681,13.98036189,-15.50411415,-10.34491874,76.73194885,-64.36714171,-3.93966436,-1.61831045,3.95115117,0.99858141,0.0335567,0.01400468,-0.0336601,-0.06510131,-0.0888947,0.01431793,0,0,0,0,1,1
1,0.81,68,-0.04869611,-1.05431676,-0.0763035,-3.05357695,-11.94731666,0.50689453,-44.89915085,1.75387311,-104.3846817,-3.81640673,1.38355131,8.86108148,0.99618911,0.03479757,-0.0181531,-0.07789011,0.18183311,-0.08009978,0.04154614,0,0,0,0,1,1
1,0.8101,60,0.09871717,-1.01541591,0.01139151,11.17386617,-16.41738533,5.1911005,-54.66138011,-14.46945186,-83.39666748,0.63411951,-1.76415181,-0.89906751,0.99966407,-0.00534178,0.01416171,0.00770989,-0.06563845,-0.00944737,0.01131399,0,0,0,0,1,1
3,0.8199,80,0.97514755,0.0700189,0.18146517,-9.83044614,8.84430885,-11.64609337,-10.31569671,75.5919341,-64.89330191,-5.48845339,-1.30775013,1.91015744,0.99835318,0.04734156,0.01131349,-0.01439509,-0.06114391,-0.1119013,-0.01975349,0,0,0,0,1,1
1,0.83,69,-0.10603133,-1.03616454,-0.07195301,-3.154493,-10.69039154,1.3370173,-44.51914597,0.81847411,-104.7646866,-3.86164801,1.37035718,8.7583951,0.99614783,0.03517444,-0.01803889,-0.07699134,0.13819065,-0.07367111,0.01886763,0,0,0,0,1,1
1,0.8301,61,0.0099015,-1.04157686,0.07734146,11.13079014,-31.3565197,4.8061458,-54.69160843,-14.10637116,-83.15051117,1.51047087,-3.38999114,-1.16196168,0.99941809,-0.01187435,0.01970855,0.00975341,0.01171116,0.05097169,0.04117917,0,0,0,0,1,1
3,0.8399,81,0.99119306,0.11530181,0.18645155,-11.90351581,6.59657574,-10.79046631,-10.60800934,75.97193909,-64.51319803,-5.57989168,-1.39541484,3.04178911,0.99817151,0.04809139,0.0111614,-0.01549589,-0.01505505,-0.10133686,0.00194546,0,0,0,0,1,1
5,0.84,71,0.96974189,0.13003793,-0.01174514,16.15395011,6.371984,-1.910604,-19.40951873,71.6164856,-87.71188513,1.40078159,3.60689831,-10.57373514,0.99497354,-0.01374896,-0.0194008,0.09173197,-0.04811173,0.0806305,-0.01314781,0,0,0,0,1,1
1,0.84,70,-0.08499384,-1.00611011,-0.03016069,-4.63687181,-0.4716908,1.17305365,-43.87606049,1.37386717,-104.1677536,-3.90935111,1.35790563,8.75780106,0.99613611,0.03557116,-0.01789943,-0.07699099,0.11458656,-0.01916708,-0.00633396,0,0,0,0,1,1
1,0.8401,61,-0.03014198,-1.01109544,0.13866949,8.93880653,-14.11979141,5.0713443,-54.69160843,-14.10637116,-83.15051117,1.59517753,-3.43144536,-1.41367447,0.99938405,-0.01354348,0.030107,0.01191185,0.05178834,0.10079094,0.01999851,0,0,0,0,1,1
3,0.8499,81,0.97560078,0.11591718,0.19894195,-9.69017414,4.11873531,-9.99488354,-10.60800934,75.97193909,-64.51319803,-5.64158861,-1.4807179,3.14485145,0.99810711,0.04859763,0.01196161,-0.01633581,-0.00615648,-0.11364397,-0.01389081,0,0,0,0,1,1
5,0.85,71,0.95530874,0.1494349,0.01614385,17.45498848,5.67599058,-1.5043198,-19.96491195,73.04881187,-87.75111097,1.40115103,3.5761683,-10.75516905,0.99483418,-0.01377464,-0.01909594,0.09430439,-0.01373885,0.05148354,-0.01717409,0,0,0,0,1,1
1,0.85,71,-0.01636996,-0.98583117,-0.00319147,-3.17118399,8.5469389,0.69366443,-44.60683813,1.81133561,-104.530838,-3.84675837,0.89599037,7.71956561,0.99711567,0.03401135,-0.00553459,-0.06761381,0.14805798,-0.00077844,-0.01978154,0,0,0,0,1,1
1,0.8501,63,0.01104789,-1.00606084,0.14385611,6.58943461,-17.44901991,4.74051141,-54.39919961,-14.49868488,-83.19104711,1.65786314,-3.4719161,-1.59487808,0.99934584,-0.01403747,0.03048869,0.01347141,0.00771841,0.10488514,0.00750015,0,0,0,0,1,1
3,0.8599,83,0.94830191,0.15494653,0.09818077,8.80700874,4.03170711,-5.64778757,-10.49108505,76.7904119,-64.8348465,-5.67894554,-1.54119911,3.05917706,0.99810018,0.04891681,0.01346115,-0.01555664,0.13317613,-0.01687156,-0.03146886,0,0,0,0,1,1
5,0.86,73,0.96806191,0.19511998,0.03871911,10.11097565,4.53697681,-0.11705151,-19.96491195,73.04881187,-87.75111097,1.41313638,3.56303334,-10.96091651,0.99466455,-0.01391998,-0.01891915,0.09609056,-0.0550603,0.00838173,-0.01714603,0,0,0,0,1,1
1,0.86,71,0.01346445,-0.99896711,0.01307103,-0.4671551,14.10415949,0.66967499,-44.10990906,1.63694813,-104.8816147,-3.83679509,0.88936116,7.87050147,0.99703516,0.03391849,-0.00544107,-0.06884775,0.08058118,0.01361141,-0.00118356,0,0,0,0,1,1
3,0.8699,84,0.98099035,0.33846107,0.01851711,38.43005371,5.1998714,-1.03561687,-10.49108505,76.17655945,-65.01013101,-5.68911457,-1.58403181,1.6741661,0.99816819,0.04907486,0.01367181,-0.01118103,0.11174313,0.04360536,0.00748419,0,0,0,0,1,1
5,0.87,74,0.98146188,0.11774606,0.04600978,18.91131369,3.96194355,0.74960446,-19.84799767,71.61034393,-88.1905899,1.41196457,3.56060171,-11.15351963,0.9945004,-0.01405095,-0.01885951,0.09776419,-0.11155991,-0.03119418,-0.01504463,0,0,0,0,1,1
1,0.87,73,0.05576181,-1.01419353,0.03916671,1.14151519,16.33101989,0.65100781,-44.10990906,1.63694813,-104.8816147,-3.80755043,0.88175445,8.03109877,0.99694639,0.03367768,-0.00535366,-0.07015043,0.05061457,0.03768181,0.01779105,0,0,0,0,1,1
3,0.8799,85,1.01318119,0.13701157,0.01060118,54.76905441,5.0170107,-0.76981045,-10.91955108,76.7904119,-65.15638733,-4.54544353,-1.59763681,3.93010111,0.99854773,0.03915111,0.01518107,-0.03370703,0.01360816,0.06853975,0.03547006,0,0,0,0,1,1
5,0.88,75,0.97403836,0.08068713,0.09614495,10.10818495,3.35137408,0.53178167,-10.19877143,71.75650014,-88.68751516,1.41681433,3.55515731,-11.16011385,0.99441171,-0.01401989,-0.01879601,0.09868784,-0.13111661,-0.09346809,-0.03566658,0,0,0,0,1,1
1,0.88,74,0.05745905,-1.03617188,0.01030846,0.68049115,18.47967911,0.06054343,-44.34375763,0.96463019,-104.471374,-3.78161883,0.88199759,8.1155961,0.99684014,0.03346016,-0.00530939,-0.07184535,0.04981808,0.01746313,0.03865687,0,0,0,0,1,1
3,0.8899,86,0.99407005,-0.08711018,-0.03311574,50.49317931,1.89915504,-1.19141487,-10.46185303,76.19347991,-65.61408447,-4.51680683,-1.64718641,3.41644358,0.99868703,0.0390414,0.01553777,-0.01930303,-0.17918641,0.11156799,-0.01040618,0,0,0,0,1,1
5,0.89,76,0.95764114,0.07711381,0.15191813,-1.14934409,1.953164,-1.40150385,-19.43876076,71.58111571,-88.33674611,0.6447944,4.81303047,-10.33979511,0.99501181,-0.00939043,-0.04139801,0.09016388,-0.10011058,-0.1381641,-0.04435791,0,0,0,0,1,1
1,0.89,75,0.04341014,-1.03118445,0.0076411,-1.00585841,14.68748474,-1.0749495,-44.05144501,1.11078631,-104.7939114,-3.77590656,0.89164818,8.46331073,0.9966833,0.03341871,-0.00533338,-0.07400189,0.06339457,0.00491548,0.03160191,0,0,0,0,1,1
3,0.8999,87,0.98174308,-0.16918367,-0.07803917,16.05071011,3.03711195,-1.69368019,-10.46185303,76.19347991,-65.61408447,-4.53451395,-1.69136918,3.16683411,0.998743,0.03913383,0.01583519,-0.017014,-0.15571179,0.17496337,-0.01691874,0,0,0,0,1,1
5,0.9,77,0.96873081,0.05035553,0.16015651,-3.373141,4.16440001,-1.4110357,-10.63713946,71.14164679,-88.51113074,0.60978118,4.78146831,-10.31671381,0.99504876,-0.00904635,-0.0410751,0.09005035,-0.10735555,-0.13309368,-0.03975808,0,0,0,0,1,1
1,0.9,76,0.01157701,-1.01748443,0.00070514,-4.15869465,33.4373436,-1.14145508,-44.05144501,1.01309163,-105.3493118,-3.76110703,-0.0115016,8.10488548,0.99690068,0.03171739,0.0015441,-0.07149497,0.07911718,-0.0011133,0.01555411,0,0,0,0,1,1
3,0.9099,88,1.04579651,-0.16189701,-0.01861057,-4.60654497,-1.01487636,-4.71011639,-10.69570351,77.199646,-65.1733078,-4.5341363,-1.73548471,3.11680665,0.99871595,0.03911161,0.01613674,-0.01744411,-0.36011397,0.11633451,0.01910154,0,0,0,0,1,1
5,0.91,78,0.98801041,0.08011964,0.15051818,-1.81113487,5.75790453,-0.94151437,-10.63713946,71.14164679,-88.51113074,0.55895859,4.74886036,-10.31453514,0.9950667,-0.00857796,-0.04081345,0.0900118,-0.09149116,-0.11051718,-0.01446451,0,0,0,0,1,1
1,0.91,77,0.03071661,-0.99444109,0.00789058,-5.37610306,41.87785711,-3.07983589,-43.78836441,1.75387311,-105.6113961,-3.77774644,0.00818561,8.63675117,0.99661911,0.03187188,0.00141073,-0.07515995,0.05713369,0.00755716,-0.0061459,0,0,0,0,1,1
3,0.9199,89,0.95185869,-0.13468098,0.07999119,-16.69130898,-4.11367668,-1.89554739,-10.31569671,77.01416147,-65.81870483,-4.51091339,-1.74553943,3.38747048,0.99869055,0.03888344,0.01637674,-0.01893141,-0.33705646,0.01484574,-0.06135466,0,0,0,0,1,1
5,0.91,79,0.98867977,0.19006601,0.07408568,-3.96191448,5.38490105,1.51197114,-10.49108505,71.81110596,-89.18444814,0.49601111,4.73879194,-10.19396715,0.99509101,-0.00801615,-0.04078689,0.08981171,-0.03076435,0.0071871,0.0064458,0,0,0,0,1,1
1,0.91,78,0.07019445,-0.97790641,0.00818088,-4.103755,44.14817176,-3.19484377,-43.78836441,1.75387311,-105.6113961,-3.77917361,0.0400043,9.08113861,0.99631858,0.03189765,0.00116153,-0.07913336,0.01691131,0.0091695,-0.01914179,0,0,0,0,1,1
3,0.9199,90,0.97310117,-0.06141913,0.09809795,-13.35856533,-1.96519947,-1.86315465,-10.75416565,77.3165741,-65.97486115,-4.57143111,-0.77359151,3.31751944,0.99877071,0.0396698,0.00789706,-0.01865404,-0.16540363,-0.01184461,-0.03056688,0,0,0,0,1,1
5,0.93,80,0.98138993,0.16058733,0.05114371,-4.98464011,5.17350864,4.16737938,-10.16954041,71.15957489,-88.68751516,0.41118795,4.75351514,-10.16645756,0.99511114,-0.00736893,-0.04097508,0.08954618,0.01108893,0.0598104,0.01704547,0,0,0,0,1,1
1,0.93,79,0.11690693,-0.97999116,-0.00113907,-1.80561067,40.66619018,-3.09406661,-43.55451584,1.01309163,-105.1031555,-3.77061439,0.07074814,9.48870177,0.99603136,0.03183717,0.00110611,-0.08168538,-0.01884741,-0.0014633,-0.01363855,0,0,0,0,1,1
3,0.9399,91,1.03131704,0.07431064,0.11879804,6.84671593,-0.94136547,-1.45491136,-10.49108505,75.358078,-65.53639111,-4.55806875,-0.79441181,3.15119109,0.99879068,0.03955168,0.00805138,-0.0180695,-0.01467585,-0.05655607,0.03715734,0,0,0,0,1,1
3,0.9499,91,1.00150804,0.15133741,0.05189834,39.77417374,-3.77369785,5.14599466,-10.14031019,77.199646,-65.71177673,-4.48136465,-0.77858579,1.85481119,0.99890851,0.03891387,0.00776111,-0.01461509,0.06109355,0.01064178,0.01316169,0,0,0,0,1,1
5,0.95,81,1.03111095,0.16781571,0.0701576,1.33553767,8.73160458,10.9766531,-10.57877731,71.01571631,-88.36597443,1.00177174,4.8913707,-10.07378483,0.99515986,-0.01145611,-0.04174697,0.08808583,0.01187855,0.03537035,0.06931865,0,0,0,0,1,1
1,0.9501,64,-0.05115574,-1.00818551,0.06110686,1.66149191,7.9141754,-0.01831908,-54.89611879,-15.5801393,-83.36743917,1.81895115,-5.4351901,-1.74116918,0.99848157,-0.0147159,0.04777301,0.01314614,0.03753648,0.01011411,0.00653004,0,0,0,0,1,1
3,0.9599,93,0.99460186,0.11958457,0.05337014,59.55854797,-6.85118586,11.36691138,-10.14031019,77.199646,-65.71177673,-4.35349989,-0.71873486,1.15971117,0.99906911,0.03785058,0.00701519,-0.01946561,0.14087361,-0.00137111,0.01051733,0,0,0,0,1,1
5,0.96,81,1.00199941,0.33510811,0.08936364,1.65559316,8.80657578,9.77779579,-10.57877731,71.01571631,-88.36597443,0.88749057,4.94181675,-10.11670708,0.99511188,-0.01151195,-0.04116846,0.0885051,0.09843518,0.04961517,0.06197967,0,0,0,0,1,1
1,0.9601,65,-0.0766017,-1.00730176,0.06167634,1.11746191,10.86115591,-0.91414381,-55.07161713,-14.17714119,-83.30897511,1.81858815,-5.43059969,-1.63411355,0.99850357,-0.0148459,0.04771097,0.01110049,0.06175669,0.01050169,0.00361471,0,0,0,0,1,1
3,0.9699,94,1.03885157,0.18581969,0.01976313,63.65086746,-5.44764413,10.01686478,-19.87711778,77.11195374,-65.44869995,-4.13734474,-0.67156594,1.61385081,0.99910189,0.03688191,0.00638846,-0.0139434,0.19718991,0.01375369,0.05848409,0,0,0,0,1,1
5,0.97,83,0.97140765,0.40194646,0.08404856,-1.6596837,7.14943118,4.67561101,-10.05161611,71.93801643,-88.39510164,0.79861151,4.95371868,-10.1175568,0.99511576,-0.0107498,-0.04143169,0.08847997,0.16367605,0.08517118,0.05089991,0,0,0,0,1,1
1,0.9701,66,-0.0907814,-1.00475597,0.05681676,0.91733848,19.60411453,-1.64799976,-54.66138011,-14.3131975,-81.3735733,1.83487654,-5.41139857,-1.43801619,0.99854173,-0.01498391,0.04761517,0.01049044,0.07580908,0.01455553,-0.00010879,0,0,0,0,1,1
3,0.9799,95,1.05406356,0.36037981,0.16315609,38.34117508,-0.1358577,0.53435051,-10.81161779,77.66735077,-65.81870483,-5.09118666,-1.65161194,-0.79869646,0.99871415,0.04456341,0.01181354,0.00798917,0.14707538,-0.11419656,0.07811431,0,0,0,0,1,1
5,0.98,84,0.95130105,0.39711189,0.0944089,-5.51141453,6.19583073,-1.46009135,-10.05161611,69.39491171,-88.11981811,0.73684319,4.91164534,-10.0911665,0.99516499,-0.01016851,-0.04111581,0.08814011,0.16980863,0.07514784,0.03181095,0,0,0,0,1,1
1,0.9801,67,-0.01459499,-0.99185413,0.05361951,0.47018901,14.44490433,-1.05791511,-54.66138011,-14.49868488,-83.13358307,1.93088471,-5.18743467,-1.18747854,0.99866619,-0.01596533,0.04556006,0.01830357,0.00994759,0.01101479,-0.00783501,0,0,0,0,1,1
3,0.9899,96,1.00647135,0.15995708,0.01163497,19.58664513,-3.84513011,-3.54415645,-10.51031517,77.78417114,-66.06155341,-5.01318587,-1.71773076,-1.08710934,0.9987036,0.04403186,0.01317495,0.01051494,0.14070404,0.04796364,0.01668181,0,0,0,0,1,1
5,0.99,85,0.94389737,0.34571031,0.1141179,-5.54417038,6.15716543,-7.15657616,-10.46185303,71.70417786,-88.01519775,1.00145948,3.60476804,-10.40566063,0.99531415,-0.011551,-0.03051945,0.09090716,0.11965611,0.03438509,0.01158315,0,0,0,0,1,1
1,0.9901,68,0.04496608,-0.98408188,0.07004511,-0.53116149,14.09061813,-1.98138487,-54.66138011,-14.49868488,-83.13358307,1.91184465,-5.17814411,-1.94517459,0.99870753,-0.01599194,0.04544498,0.01619733,-0.05690037,0.01631656,-0.01013316,0,0,0,0,1,1
3,0.9999,97,0.97163461,0.11134848,0.04706733,6.3970747,-4.391911,-1.35111117,-10.91955108,77.93041755,-66.10870971,-4.97401048,-1.74111357,-1.14639044,0.99871188,0.04361735,0.0134617,0.01101957,0.10011179,0.01591881,-0.01001057,0,0,0,0,1,1
5,1,86,0.95941517,0.17937311,0.10498734,-5.06663799,7.08433147,-10.99868011,-10.57877731,71.11341858,-87.98596954,0.97318371,3.47416806,-10.36455154,0.99539554,-0.01119171,-0.01941137,0.09053611,0.04636115,0.01017618,0.0063144,0,0,0,0,1,1
1,1.0001,69,0.03814399,-0.98681015,0.04486514,0.1933156,10.17411079,-1.01669884,-54.01919091,-14.11867905,-81.95819855,1.91155378,-5.16697073,-1.74181118,0.99873911,-0.01607164,0.04531811,0.01441587,-0.04983319,0.00111109,-0.00811785,0,0,0,0,1,1
3,1.0099,98,1.01131548,0.19090565,0.10411955,-5.87818813,-5.99131489,0.73787779,-10.91955108,77.93041755,-66.10870971,-4.91080641,-1.73501636,-1.08385611,0.99873914,0.0431403,0.01343635,0.01047134,0.06103141,-0.03818161,0.01601511,0,0,0,0,1,1
5,1.01,87,0.98161489,0.14013436,0.08773431,-5.67178814,6.93409719,-11.1113707,-10.57877731,71.11341858,-87.98596954,0.94993985,3.33310485,-10.3157053,0.99547368,-0.01086708,-0.01811903,0.09009894,-0.00388613,0.00914145,0.01496563,0,0,0,0,1,1
1,1.01,80,0.1401841,-0.98731477,0.01151199,1.40710749,-3.79171945,3.76911487,-43.71990417,1.37386717,-105.0861174,-1.84538031,1.16605783,10.65507698,0.99519817,0.01566404,-0.00781337,-0.09306715,-0.03167393,0.00650631,-0.00337818,0,0,0,0,1,1
1,1.0101,70,-0.01699101,-0.99719369,0.0518103,-0.09911645,17.61484931,-1.16710544,-54.89611879,-14.44011179,-83.54181379,1.91963875,-5.15304375,-1.56455301,0.99876611,-0.01611907,0.0451716,0.0118841,0.00619435,0.00807417,-0.00111595,0,0,0,0,1,1
3,1.0199,99,0.9959479,0.14801779,0.16566658,-11.17531338,-8.5717783,1.14110443,-10.40339088,76.0011673,-66.09178161,-4.84891987,-1.71111536,-0.95605141,0.99878007,0.04148669,0.01336915,0.0093376,0.01306716,-0.09594108,0.00718819,0,0,0,0,1,1
5,1.01,88,0.97681439,0.1471415,0.08611861,-5.06694555,5.46567535,-11.77335167,-10.69570351,71.61034393,-87.60596466,0.93894716,3.10151967,-10.16891757,0.99554467,-0.01065839,-0.01709764,0.08968347,0.00079138,0.01388056,0.01101071,0,0,0,0,1,1
1,1.01,81,0.14853735,-0.9898836,-0.00637401,1.11945194,-7.41689371,4.03567166,-43.71990417,1.37386717,-105.0861174,-1.84144061,1.11691845,10.57941713,0.99536443,0.01560195,-0.00750178,-0.09140177,-0.0406111,-0.0115817,-0.00101718,0,0,0,0,1,1
1,1.0101,71,-0.00900335,-0.99851948,0.03867347,-1.19906159,13.71141306,-1.11871114,-54.7793045,-14.10637116,-83.74744415,1.90611671,-5.13690996,-1.41541564,0.99878915,-0.0160579,0.04500999,0.01167913,-0.00131379,-0.00493838,-0.00041316,0,0,0,0,1,1
3,1.0199,100,0.9730047,0.1711549,0.18511808,-13.81411111,-9.15973115,0.133556,-10.66647148,77.57965088,-65.71177673,-6.03914751,-3.58680034,-1.90514673,0.99795705,0.05316447,0.03037147,0.01814179,0.03179501,-0.1137084,-0.01359313,0,0,0,0,1,1
5,1.03,89,0.96781801,0.16165314,0.08913818,-5.69800615,5.01589311,-10.35618877,-10.40339088,71.15957489,-87.37111609,0.91408657,3.08654881,-10.11656895,0.9956153,-0.01041704,-0.01610637,0.08911943,0.01597934,0.01814896,0.00707416,0,0,0,0,1,1
1,1.03,81,0.1696143,-0.99141401,-0.01154467,0.64137458,-8.37055683,3.61414551,-44.10990906,0.90616781,-105.1616196,-1.84518179,1.09109611,10.49486731,0.99543514,0.01559338,-0.0071168,-0.09166016,-0.06111378,-0.03780135,0.0003446,0,0,0,0,1,1
1,1.0301,71,0.01116413,-0.99411109,0.05190696,-1.87851101,7.41971494,-3.08961035,-54.51611391,-14.35151857,-83.33810343,1.06105416,-4.74419464,-1.34630966,0.99891116,-0.01749099,0.0415916,0.01099181,-0.0197301,0.0079095,-0.0013317,0,0,0,0,1,1
3,1.0399,101,0.98511015,0.14646314,0.15944508,-4.19784679,-10.06947317,1.93631339,-10.15713457,76.70171064,-66.53015055,-5.94316401,-3.57337809,-1.85641153,0.99801166,0.05131389,0.03019313,0.01778601,0.09713318,-0.08140918,0.00586115,0,0,0,0,1,1
5,1.04,90,0.98081733,0.16690131,0.05813811,-10.16553116,3.00670505,-7.63090181,-10.31569671,71.08418174,-87.15518799,1.58438087,3.11861935,-10.16581431,0.99546713,-0.01617735,-0.01673119,0.08980919,0.00196376,0.0451661,0.01645091,0,0,0,0,1,1
1,1.04,83,0.18813075,-0.98419865,-0.03187599,0.59314805,-6.91813873,1.76068449,-43.13197119,1.05131381,-104.8513789,-1.84697713,1.06564879,10.4148714,0.99549341,0.01558178,-0.00700131,-0.09104681,-0.08186384,-0.04759688,-0.00578081,0,0,0,0,1,1
1,1.0401,73,0.00678695,-0.99873143,0.06049971,-1.74440517,4.0478158,-3.49781681,-54.51611391,-14.35151857,-83.33810343,1.04431487,-4.71116747,-1.30185751,0.99893975,-0.01735569,0.04119541,0.01061474,-0.00971601,0.01445956,0.00071139,0,0,0,0,1,1
3,1.0499,101,0.97649848,0.11615805,0.0867556,4.19341707,-10.04447079,3.00331401,-10.37415886,77.71580719,-66.19640198,-5.83513798,-3.55815601,-1.8930117,0.99806011,0.05138074,0.03016089,0.01806961,0.07606803,-0.00768694,-0.00455751,0,0,0,0,1,1
5,1.05,91,0.97933441,0.14966057,-0.00968719,-11.34313869,0.79358381,-5.8108964,-10.5495471,71.34716715,-86.96187537,1.57171816,3.15976334,-10.15373898,0.99557101,-0.01610471,-0.01614586,0.08881708,-0.03877983,0.09015956,0.00131767,0,0,0,0,1,1
1,1.05,84,0.19475811,-0.97640055,-0.01881878,1.11510468,-5.04405918,1.11718049,-43.49605179,1.7831043,-105.0569991,-3.17100155,1.01110638,10.4406661,0.9951715,0.01916146,-0.01503968,-0.09141309,-0.08518096,-0.03163781,-0.01199743,0,0,0,0,1,1
1,1.0501,74,-0.01118513,-0.99150056,0.06137689,-1.11146199,3.51116481,-3.74463105,-54.7793045,-14.67407131,-83.41589569,1.01184336,-4.67551614,-1.16414991,0.9989593,-0.017186,0.04097608,0.01030156,0.00811714,0.01675378,-0.00795637,0,0,0,0,1,1
3,1.0599,103,0.98476744,0.13065614,0.01774654,4.79119617,-9.4887085,1.97971679,-19.70184135,76.17655945,-67.01718353,-5.73195171,-3.54314446,-1.93596697,0.99810338,0.05049043,0.03001748,0.01841001,-0.0016978,0.0584971,-0.0018884,0,0,0,0,1,1
5,1.06,91,0.98636049,0.16714747,-0.0148901,-9.8643465,0.68895465,-5.17137995,-10.60800934,71.49341346,-87.05056763,1.56343436,3.10661198,-10.05603113,0.99566084,-0.01596114,-0.01580496,0.08797085,-0.01901511,0.1016601,0.01114665,0,0,0,0,1,1
1,1.06,85,0.1908685,-0.98413163,-0.00063619,1.91806131,-3.60855055,-0.11011763,-43.67144011,1.71464191,-105.4370041,-3.15731144,1.01171773,10.40300941,0.99530494,0.01903111,-0.01507416,-0.09109443,-0.06790319,-0.01091381,-0.00189953,0,0,0,0,1,1
1,1.0601,75,0.00717649,-0.98173379,0.06711417,-1.30146766,4.56816339,-4.10117003,-54.41851783,-16.69101669,-83.10435486,1.99955559,-4.63569164,-1.11486509,0.99898111,-0.01700458,0.0406194,0.00988558,-0.01010996,0.01198395,-0.01515599,0,0,0,0,1,1
3,1.0699,104,0.97814983,0.09695038,0.01477547,-1.15545347,-9.01104831,1.47091891,-19.70184135,76.17655945,-67.01718353,-5.6418151,-3.516649,-1.9186399,0.99815005,0.04969867,0.01990578,0.01811846,-0.03398341,0.07340051,-0.0108695,0,0,0,0,1,1
5,1.07,93,0.98851514,0.19793661,0.00836885,-9.01091457,0.10005916,-5.1033659,-10.60800934,71.49341346,-87.05056763,1.56065881,3.05777383,-9.9648037,0.99574191,-0.01587961,-0.01539518,0.08717175,0.00531464,0.09514111,0.01585755,0,0,0,0,1,1
1,1.07,86,0.18351378,-0.9974069,0.01087698,1.13173046,-1.91906035,-0.61391593,-43.61197989,1.46156096,-105.5539311,-3.13748908,1.0189814,10.38197803,0.99531551,0.01886108,-0.01514955,-0.09091055,-0.05919196,0.00934507,0.01105188,0,0,0,0,1,1
1,1.0701,76,0.01199713,-0.99156879,0.05119835,-1.3561111,4.11541418,-4.17561857,-54.54545111,-14.61560917,-83.15051117,1.97575796,-4.594944,-1.16884959,0.99900175,-0.01681719,0.04015536,0.00949913,-0.01440634,0.00636786,-0.00443153,0,0,0,0,1,1
3,1.0799,105,0.98774517,0.14454763,-0.01606001,-8.65661611,-7.33557463,1.34764135,-19.78953551,77.199646,-66.73487091,-4.35435151,-3.89418181,-1.51071048,0.99843313,0.03870153,0.03311199,0.01317035,0.0156177,0.10119568,0.00174711,0,0,0,0,1,1
5,1.08,94,0.98766143,0.30178119,0.04066308,-7.37147379,-0.8746165,-4.53418159,-10.49108505,71.171875,-87.34188015,1.56819737,3.01865171,-9.88706875,0.99581011,-0.01589861,-0.01506036,0.08649506,0.01137871,0.06811451,0.0307315,0,0,0,0,1,1
1,1.08,87,0.16363856,-1.00780714,0.01441544,1.61914311,0.47196831,-0.71911876,-43.61197989,1.46156096,-105.5539311,-3.11066889,1.03614044,10.38531971,0.9953158,0.01871104,-0.01511413,-0.09093895,-0.03833637,0.01187535,0.01985116,0,0,0,0,1,1
1,1.0801,77,0.03616153,-0.99704099,0.03786195,-1.39196007,1.61181068,-3.78739715,-54.54545111,-14.61560917,-83.15051117,1.80911318,-4.11097097,-1.01667951,0.99919707,-0.01545481,0.03600171,0.00838615,-0.03456833,-0.00598068,0.00069803,0,0,0,0,1,1
3,1.0899,106,1.00564177,0.16638931,-0.01411534,-11.94565581,-6.14539051,1.11785181,-19.17568016,77.84173519,-65.94563193,-4.30857086,-3.87948813,-1.38775396,0.99847734,0.03816556,0.03303441,0.01108101,0.03109835,0.08104076,0.01991948,0,0,0,0,1,1
5,1.09,95,0.96846165,0.19869971,0.06117111,-1.37714696,-0.49746379,-3.94030161,-10.431611,70.3010788,-86.78749084,1.03777933,1.57963848,-9.88645935,0.9958361,-0.01965073,-0.01089055,0.08653194,0.03141667,0.04479615,0.01411468,0,0,0,0,1,1
1,1.09,88,0.14133311,-1.00898433,0.01363171,0.16868193,3.17108335,-0.71978569,-41.94065857,0.4676995,-105.0569991,-3.11391306,1.04191701,10.41777134,0.99530047,0.01867101,-0.01518034,-0.09111141,-0.01595931,0.00083759,0.01831557,0,0,0,0,1,1
1,1.0901,78,0.03971751,-0.98978657,0.01547169,-1.35686088,1.17034318,-3.15691401,-54.60391617,-14.67407131,-83.6889801,1.78551556,-4.08001186,-1.01078749,0.99911095,-0.01515658,0.03571901,0.00815939,-0.03119149,-0.01603946,-0.00693817,0,0,0,0,1,1
3,1.0999,107,0.99519177,0.15164951,0.0103181,-10.18719973,-6.15159359,1.93011369,-10.40339088,77.51119446,-66.55948639,-4.15851813,-3.85914171,-1.1817096,0.99851984,0.03779591,0.03190118,0.01114484,0.01166375,0.03764765,0.00817501,0,0,0,0,1,1
5,1.1,96,0.96077193,0.19819183,0.06561953,1.85118985,1.61904163,-3.1611886,-10.431611,71.78573608,-87.71188513,1.03584003,1.54081631,-9.91806507,0.9958107,-0.01961051,-0.01054919,0.0868009,0.01890359,0.03556144,0.00714705,0,0,0,0,1,1
1,1.1,89,0.14111161,-1.01309133,0.01730705,-1.15875568,8.07191508,-1.4756639,-43.84681846,1.37386717,-105.017771,-3.00116706,1.17091018,10.63018131,0.99511534,0.01790441,-0.01719893,-0.09309956,-0.01514147,0.0037631,0.01173761,0,0,0,0,1,1
1,1.1001,79,0.03381863,-0.98153101,0.01131835,-1.74484105,1.15311155,-1.78609014,-53.13004913,-14.79099655,-83.16181891,1.76815183,-4.05311104,-0.98675138,0.99911313,-0.01511473,0.03549003,0.0080589,-0.01650959,-0.01875153,-0.01481105,0,0,0,0,1,1
3,1.1099,108,0.98395807,0.15147775,0.04830533,-6.33074045,-5.69445944,1.51333714,-10.11107816,77.18733816,-66.85179901,-4.10806117,-3.83556747,-1.11691108,0.99855548,0.03733353,0.03171673,0.01054954,0.01061049,0.00898374,-0.00344416,0,0,0,0,1,1
5,1.11,97,0.96864003,0.18335589,0.06834513,5.98119837,1.8174994,-1.89961387,-10.5495471,71.75650014,-87.4013443,1.03538561,1.51367011,-9.98130035,0.99577816,-0.01959738,-0.01030181,0.0873466,0.0141494,0.01661711,0.01079846,0,0,0,0,1,1
1,1.11,90,0.15831175,-1.00866916,0.03687793,-3.00717068,13.76430035,-1.19506598,-43.51518381,1.11078631,-105.7585516,-3.01315846,1.19104996,10.77034187,0.99499398,0.01804691,-0.01741964,-0.09431174,-0.01853596,0.01110104,0.01111711,0,0,0,0,1,1
1,1.1101,80,0.06353149,-0.9858495,0.01051919,-1.13673975,3.35156671,-1.85111453,-54.34083557,-16.57410049,-83.30897511,1.75603091,-4.03601695,-0.95153493,0.99913147,-0.01501116,0.0353355,0.0077579,-0.05547807,-0.03034114,-0.0091063,0,0,0,0,1,1
3,1.1199,109,0.98959115,0.16371091,0.06450084,-1.56174651,-5.58711161,3.00148694,-10.11107816,77.18733816,-66.85179901,-4.15300511,-3.80973101,-1.18907356,0.99858594,0.03684177,0.03151039,0.01018311,0.01104115,-0.00936436,0.00179153,0,0,0,0,1,1
5,1.11,98,0.9668743,0.16678309,0.07166754,5.67458153,3.50336613,-0.81779311,-10.5495471,71.75650014,-87.4013443,1.01367806,1.49316883,-10.04471156,0.99573588,-0.01949119,-0.01011179,0.08789184,0.00161141,0.01650895,0.00491113,0,0,0,0,1,1
1,1.11,91,0.17618194,-1.00175141,0.03737984,-1.46611166,16.51655769,-1.71081471,-43.46681358,0.51616191,-104.8513789,-3.01635671,1.31603741,10.93753815,0.99484961,0.01811988,-0.01760307,-0.09578016,-0.0465434,0.01318974,0.01688096,0,0,0,0,1,1
1,1.1101,81,0.10050631,-0.99164171,-0.00079396,-0.78403306,1.41986775,-0.36391578,-54.3700676,-14.61560917,-83.10435486,1.7483784,-4.03340197,-0.91659539,0.99913605,-0.01496141,0.03530884,0.00754315,-0.09174884,-0.0415731,-0.00061558,0,0,0,0,1,1
3,1.1199,110,0.99447554,0.14348041,0.08901089,0.90368915,-6.69100857,3.19395781,-10.37415886,77.11195374,-66.73487091,-4.31637859,-3.57903647,-1.99089813,0.99863115,0.03817668,0.03054711,0.01851801,-0.00069541,-0.03161197,0.00601101,0,0,0,0,1,1
5,1.13,99,0.96709394,0.16170697,0.04734837,6.58859396,4.49311605,-0.37768115,-10.431611,71.96111061,-87.34188015,1.00397348,1.47180693,-10.11011686,0.99568511,-0.01931774,-0.01994813,0.08854168,-0.01137119,0.03690759,0.00067667,0,0,0,0,1,1
1,1.13,91,0.1057877,-1.0001991,0.01911755,-1.38585567,13.41518151,-3.66518749,-43.46681358,0.51616191,-104.8513789,-3.01149611,1.350914,11.07398033,0.9947163,0.0181133,-0.01786716,-0.09697197,-0.07566763,0.01519446,0.01643494,0,0,0,0,1,1
1,1.1301,81,0.11109111,-0.99716831,0.03369988,-0.35631414,-0.34315708,0.45530608,-54.3700676,-14.61560917,-83.10435486,1.81563187,-1.98171687,-0.66844094,0.99951149,-0.01568633,0.01610611,0.0054183,-0.09716791,-0.00734096,0.00590688,0,0,0,0,1,1
3,1.1399,111,0.98518115,0.11864463,0.06018601,5.33114716,-6.8015151,1.9007441,-19.93569183,77.37503815,-67.17333984,-4.13901119,-3.56130695,-1.04081416,0.99865454,0.03751317,0.03038877,0.01893677,-0.0185119,0.00147191,-0.00480465,0,0,0,0,1,1
5,1.14,100,0.95397604,0.30955851,0.07164594,10.13800659,5.7039137,-0.16744141,-10.31569671,71.90879811,-86.99110358,1.4176761,1.73357415,-10.15141518,0.99571116,-0.01143659,-0.01319084,0.08876988,0.03833536,0.03391198,0.00450344,0,0,0,0,1,1
1,1.14,93,0.11806346,-1.00015344,0.01111118,-3.07113934,8.34370136,-4.08889961,-43.67144011,1.1691487,-104.8816147,-3.04189153,1.3907876,11.16041133,0.99464005,0.01843875,-0.01817546,-0.09773481,-0.08716001,0.00845001,0.01715155,0,0,0,0,1,1
1,1.1401,83,0.08944689,-0.99560571,0.04993415,1.58160663,-0.47351597,1.11606816,-54.106987,-14.87869071,-83.07511665,1.84136796,-1.99369764,-0.67574131,0.99951481,-0.01590849,0.01611185,0.00547441,-0.0611618,0.00769789,0.00189771,0,0,0,0,1,1
3,1.1499,111,0.98944188,0.13384816,0.07110719,4.51570171,-5.64136314,1.79143016,-19.90645981,77.17041779,-66.85179901,-4.17430019,-3.54178445,-1.0833776,0.99867356,0.03695775,0.0301143,0.01918475,-0.00470586,-0.01333675,0.00018144,0,0,0,0,1,1
5,1.15,101,0.95598318,0.35173309,0.0851097,13.61051655,6.4896841,0.96507853,-10.90031196,71.11341858,-87.43057151,1.40587916,1.71013535,-10.30198765,0.99560153,-0.011154,-0.01306178,0.0900647,0.06970058,0.03473888,0.01986377,0,0,0,0,1,1
1,1.15,94,0.11806187,-0.99117701,0.01108469,-3.18508506,3.11631409,-4.11066746,-43.3791175,-0.17538731,-105.5539311,-1.99304618,3.51641583,11.39780998,0.99417015,0.01901064,-0.01791749,-0.10001743,-0.09158915,0.00910357,0.00919497,0,0,0,0,1,1
1,1.1501,84,0.05741395,-1.00314951,0.05915149,3.49781871,-0.74197711,1.08690619,-54.18137151,-15.37561084,-83.45513153,1.87610771,-3.01413894,-0.68681195,0.9995048,-0.01610869,0.01639438,0.00556016,-0.01994113,0.01617965,0.00700171,0,0,0,0,1,1
3,1.1599,113,0.98503959,0.13611671,0.10741933,1.11735511,-4.16471195,1.51116376,-10.05161611,77.63811493,-66.76410675,-4.11989569,-3.53199618,-1.0934179,0.9986887,0.03657195,0.03014314,0.0193576,-0.00575186,-0.04951781,-0.00430115,0,0,0,0,1,1
5,1.16,101,0.91081115,0.3084493,0.1110688,18.03591873,8.3089961,1.49541736,-10.75416565,71.87341834,-87.66441108,1.37864518,1.70568609,-10.49951111,0.99545118,-0.01101833,-0.01191981,0.09177514,0.05453754,-0.00796113,-0.01103104,0,0,0,0,1,1
1,1.16,95,0.13195586,-0.98397595,0.01156911,-3.01596403,-0.11775673,-4.40008688,-43.46681358,1.1691487,-105.1739173,-3.0118107,3.56056714,11.39990807,0.99414801,0.0193173,-0.01818408,-0.10005181,-0.08313538,-0.00144135,0.00161519,0,0,0,0,1,1
1,1.1601,85,0.01544868,-1.01404369,0.09317541,4.1741753,1.53374517,1.55976844,-54.15314331,-14.41099071,-81.84117045,1.91944516,-3.04016747,-0.67603417,0.99949311,-0.01658686,0.01661181,0.00545115,0.00141147,0.04948611,0.01571841,0,0,0,0,1,1
3,1.1699,114,0.97333586,0.14111099,0.17197813,-5.31510771,-3.49175167,0.19108465,-19.93569183,77.57965088,-66.76410675,-4.10101359,-3.51995157,-1.03787971,0.99870777,0.03631389,0.03013903,0.01886511,-0.00705115,-0.11579347,-0.01617611,0,0,0,0,1,1
5,1.17,103,0.91750585,0.11660773,0.070743,15.50379181,10.06110899,1.14833989,-10.75416565,71.87341834,-87.66441108,1.35411969,1.69333303,-10.77398871,0.99513604,-0.01183708,-0.01177979,0.09415445,-0.04349767,-0.01037951,-0.04691647,0,0,0,0,1,1
1,1.17,96,0.11833906,-0.9715507,0.00319564,-4.13108015,-5.60107171,-7.08401103,-43.55451584,1.1691487,-105.6113961,-3.07170534,3.63134758,11.34859848,0.99415886,0.01979019,-0.01887755,-0.09963347,-0.07874311,-0.00815688,-0.01057761,0,0,0,0,1,1
1,1.1701,86,-0.01185461,-1.00056779,0.0767317,5.01799559,11.11134951,1.59460115,-53.75611033,-15.69716454,-83.48435974,1.97171897,-3.07097144,-0.57036157,0.99948175,-0.01707471,0.01687741,0.00451353,0.03899831,0.03133534,-0.00087159,0,0,0,0,1,1
3,1.1799,115,0.91904176,0.05771948,0.15611584,-10.9990387,-3.14138715,-1.6394161,-19.93569183,77.57965088,-66.76410675,-4.46114833,-1.4104514,-1.00140631,0.99897367,0.03910487,0.0107639,0.00955145,-0.08007615,-0.08858846,-0.06605613,0,0,0,0,1,1
5,1.18,104,0.96390903,0.1363056,-0.00659613,30.81109183,9.84539113,4.48904561,-10.19877143,71.05495453,-87.54750061,1.3373158,1.70414471,-11.10044765,0.99496543,-0.01173564,-0.01181571,0.09698919,-0.155544,0.01451905,-0.04511647,0,0,0,0,1,1
1,1.18,97,0.11165191,-0.97177118,-0.00430161,-5.177413,-9.55666351,-9.51199168,-43.55451584,1.1691487,-105.6113961,-3.13693141,3.719001,11.158955,0.99419018,0.03041545,-0.0196833,-0.09889148,-0.07049756,-0.01481364,-0.01030731,0,0,0,0,1,1
1,1.1801,87,0.04671194,-0.99833083,0.06435946,5.84541751,17.90614118,1.11141697,-53.75611033,-15.69716454,-83.48435974,1.0883317,-1.11090078,-0.11411818,0.99964678,-0.01818364,0.01931337,0.00151718,-0.01713114,0.01869661,0.00139745,0,0,0,0,1,1
3,1.1899,116,0.94180186,0.13164039,-0.0000004,-14.18837357,-1.14881611,-0.97935917,-19.64337911,76.84887695,-66.61795044,-4.46878576,-1.41360416,-0.75818075,0.99899083,0.03911738,0.0107867,0.0074318,0.01399598,0.06339987,-0.0475319,0,0,0,0,1,1
5,1.19,105,1.0141046,0.01518004,-0.0395941,30.7163179,7.10711709,7.0035881,-10.1864666,71.37649536,-87.45980835,1.34777665,5.31019714,-11.86881496,0.99131517,-0.01553586,-0.04381613,0.11186633,-0.17131033,0.00153837,-0.03480519,0,0,0,0,1,1
1,1.19,98,0.10919794,-0.96391411,0.01504511,-6.31096863,-10.07181503,-11.97130199,-43.17451096,0.81847411,-105.7877808,-3.11417894,3.85015345,11.16531754,0.99411133,0.03116407,-0.03069317,-0.09811617,-0.05680711,0.0063865,-0.01871166,0,0,0,0,1,1
1,1.1901,88,0.1513431,-1.00660153,0.04644078,7.56500387,18.01077103,1.54379171,-54.18137151,-15.08330917,-83.0166616,1.17135406,-1.14461555,-0.04186989,0.99961878,-0.01893671,0.01959011,-0.00000587,-0.10979434,-0.00118715,0.01731494,0,0,0,0,1,1
3,1.1999,117,0.97310174,0.09119117,0.01503188,-34.55469513,-1.51893138,-3.5905304,-10.15713457,77.37503815,-66.41333008,-4.48594951,-1.41490673,-0.40983414,0.99900079,0.03910389,0.01100343,0.00440106,-0.01993841,0.05316018,-0.01914513,0,0,0,0,1,1
5,1.1,106,1.07378161,-0.01939335,-0.07457001,15.80901337,1.70764947,9.86816801,-10.5495471,71.05495453,-88.13111585,1.33910656,5.40810718,-13.13187067,0.99101697,-0.01564848,-0.04451634,0.11516067,-0.195578,0.01359555,0.00771773,0,0,0,0,1,1
1,1.1,99,0.16361941,-0.95171975,0.01191705,-4.06419315,-7.69768667,-14.17109146,-43.16110311,1.37386717,-105.7585516,-3.31638478,3.87056804,11.00407505,0.99431193,0.0311105,-0.03081961,-0.0967617,-0.01059311,0.00534875,-0.0339013,0,0,0,0,1,1
1,1.1001,89,0.13109431,-1.01316667,0.03343457,9.7419157,11.09314646,3.83110799,-54.54545111,-14.67407131,-83.17973938,1.17365899,-1.18850193,0.06899778,0.99960339,-0.01984817,0.01995374,-0.00099808,-0.09079116,-0.01605415,0.01119617,0,0,0,0,1,1
3,1.1099,118,0.94671853,0.11190751,-0.11418404,-15.56874657,1.38178849,-6.71479677,-10.69570351,76.87810516,-66.44155819,-4.54536915,-1.46907949,-0.15136518,0.99897945,0.0396748,0.01147541,0.00118166,0.01691851,0.18887934,-0.04115651,0,0,0,0,1,1
5,1.11,107,1.07386756,0.01885961,-0.07305117,15.18915185,-1.56117183,11.57787514,-10.1864666,71.70417786,-87.83981313,1.34597993,5.51961493,-13.18161189,0.99181135,-0.01588718,-0.04553797,0.11646666,-0.14311747,0.03766664,0.01445818,0,0,0,0,1,1
1,1.11,100,0.11618016,-0.95619005,-0.00330454,-3.15194041,-4.71569109,-15.60348415,-41.64834976,1.05131381,-105.7877808,-3.36498904,4.01715969,10.96109771,0.99418666,0.03156193,-0.0311581,-0.09643459,0.01796495,-0.00854715,-0.03461596,0,0,0,0,1,1
1,1.1101,90,0.08031094,-1.00166017,0.0460383,10.5474471,9.01173901,5.10101301,-54.16544714,-14.99561501,-83.74744415,1.38174765,-1.34470171,0.14784408,0.99957317,-0.01081391,0.0104187,-0.00171503,-0.04089547,-0.00519314,0.00795,0,0,0,0,1,1
3,1.1199,119,0.98578781,0.13559175,-0.10331661,-11.51375103,7.39154379,-10.56809511,-19.58491707,76.38117118,-66.16717377,-4.64416131,-1.55613317,-0.0158136,0.9989301,0.04051167,0.01117805,0.00111879,0.03434689,0.16811113,-0.00133689,0,0,0,0,1,1
5,1.11,108,1.05163991,0.13999945,-0.00513198,8.70103876,-4.40661479,11.35360336,-10.1864666,71.70417786,-87.83981313,1.3556788,5.65441085,-13.36174338,0.9916711,-0.01611881,-0.04659006,0.11718863,-0.11091113,0.01490986,0.04375449,0,0,0,0,1,1
1,1.11,101,0.11839803,-0.97154778,0.00041167,-1.01117467,0.09514108,-16.13185911,-41.96989059,1.14001751,-105.7585516,-3.38378571,4.1895647,10.96503639,0.99411348,0.03186089,-0.03355064,-0.09651083,0.0398908,-0.00538143,-0.01956898,0,0,0,0,1,1
1,1.1101,91,0.0311597,-0.98750544,0.05736679,10.91969036,11.06011811,5.65885019,-54.80853653,-16.0479393,-83.71810831,1.49635315,-1.40668416,0.14635917,0.99953901,-0.01181335,0.01094888,-0.00160636,0.00476161,0.00434161,-0.01073168,0,0,0,0,1,1
3,1.1199,110,1.01591517,0.11040759,-0.15434545,-0.41454083,10.68700113,-11.33810043,-19.58491707,76.38117118,-66.16717377,-1.58011198,-3.87164831,0.39893981,0.99917157,0.01138316,0.03384963,-0.00171801,0.11417871,0.10100109,0.04377451,0,0,0,0,1,1
5,1.13,109,0.99911198,0.18494459,0.06639161,3.10311119,-4.46731471,9.71111505,-19.96491195,71.15957489,-88.48190153,1.36084867,5.76157086,-13.38959408,0.99159455,-0.01619336,-0.04751474,0.11743691,0.06101701,0.01361137,0.04417845,0,0,0,0,1,1
1,1.13,101,0.11930011,-1.01171578,0.01463146,1.15969589,6.98007154,-16.57471038,-41.96989059,1.14001751,-105.7585516,-3.35888338,4.35467863,11.03487396,0.9941141,0.0318011,-0.03498447,-0.09714617,0.03558017,0.01594153,0.01313145,0,0,0,0,1,1
1,1.1301,91,0.05536455,-0.99144977,0.04181898,10.94919314,16.07195854,7.51788135,-54.80853653,-16.0479393,-83.71810831,1.38409066,-1.88147118,0.19613975,0.99964684,-0.01081888,0.01637899,-0.00105347,-0.01663576,-0.01130618,-0.00511404,0,0,0,0,1,1
3,1.1399,111,1.04067397,0.13753611,-0.14888164,14.18347549,11.56603909,-11.61966133,-10.19877143,76.6734848,-66.19640198,-1.6888957,-3.99115861,0.15361631,0.99911779,0.01337154,0.03486548,-0.0013943,0.11180051,0.16811189,0.0589318,0,0,0,0,1,1
5,1.14,110,0.96015658,0.1946501,0.11660904,-1.14313388,-5.5114309,7.48663998,-10.15713457,71.87341834,-88.17818117,1.84893071,4.89331771,-13.48011447,0.99197358,-0.01101774,-0.04049693,0.11791687,0.10390836,-0.01414109,0.01779681,0,0,0,0,1,1
1,1.14,103,0.11904876,-1.07359159,0.0566609,0.65378988,18.63375091,-17.85464478,-41.79450116,1.51001335,-105.3493118,-3.31034087,4.53159094,11.11189045,0.99390131,0.03167389,-0.03649893,-0.09879544,0.05441341,0.0431558,0.08601379,0,0,0,0,1,1
1,1.1401,93,0.1104181,-0.98006988,0.05961799,10.76143019,10.10578918,8.41833805,-54.91546081,-14.51791595,-83.89360046,1.49638367,-1.97061111,0.1839008,0.99961084,-0.01181163,0.01713788,-0.00185113,-0.06594671,0.00666031,-0.01110416,0,0,0,0,1,1
3,1.1499,111,1.07003367,0.10490641,-0.03118773,11.99540806,11.08107607,-13.04984093,-19.87711778,77.11888184,-66.31563781,-1.79474901,-4.11533785,0.11093417,0.99905837,0.01433174,0.03591039,-0.00017875,-0.03659168,0.06850646,0.07857537,0,0,0,0,1,1
5,1.15,111,0.94154141,0.11176941,0.13160659,-1.18701171,-4.34843106,4.61064768,-10.81161779,69.74568939,-88.13111585,1.86498058,4.95319843,-13.46090889,0.99196708,-0.01111069,-0.04100131,0.11777199,0.03018113,-0.05793481,-0.01151671,0,0,0,0,1,1
1,1.15,104,0.05748381,-1.08888733,0.08818798,-1.74104309,33.1445488,-10.18109703,-41.76517405,1.11078631,-105.9631653,-1.44188404,3.08171017,11.11715941,0.99367559,0.0140409,-0.01447304,-0.10691105,0.11343095,0.06941783,0.09741513,0,0,0,0,1,1
1,1.1501,94,0.07507113,-0.98491104,0.04851711,11.86998558,13.10795536,9.98019791,-55.15930939,-14.35151857,-83.89360046,1.63099313,-1.07706857,0.39971407,0.99956477,-0.01301701,0.01803989,-0.00390185,-0.0310638,-0.00666458,-0.01013606,0,0,0,0,1,1
3,1.1599,113,1.01683008,-0.04466055,0.03710691,1.0886004,8.45117118,-11.76831145,-19.99415398,76.96579741,-65.85793304,-1.88838481,-4.11419176,0.09879476,0.99900365,0.01515434,0.03686554,0.00006759,-0.19154163,0.01763744,0.01501654,0,0,0,0,1,1
5,1.16,111,0.95731439,0.18350968,0.16347764,-0.44407718,-1.85583079,1.13785756,-10.15713457,71.49341346,-88.10189001,1.8754911,4.97115959,-13.45141013,0.99196684,-0.01131698,-0.04114947,0.11770404,0.01436914,-0.09959164,-0.01117057,0,0,0,0,1,1
1,1.16,105,-0.03711988,-1.04370581,0.11037111,-5.33016396,38.74085136,-11.08398147,-41.71194785,0.90616781,-105.5539311,-1.43749918,3.18433704,11.61336517,0.99314818,0.01417948,-0.01614193,-0.1103861,0.18596671,0.09318351,0.04445479,0,0,0,0,1,1
1,1.1601,95,0.0676136,-0.99150319,0.06394841,13.1415863,11.05118847,11.54131358,-54.60391617,-13.97151174,-83.6889801,1.76711573,-1.1981461,0.49170383,0.99951317,-0.01411394,0.01907169,-0.00476074,-0.01603304,0.00618818,-0.00181611,0,0,0,0,1,1
3,1.1699,114,0.97719146,0.01865513,0.07999979,-13.75604153,7.71141785,-10.9516101,-10.37415886,76.99503316,-66.00408936,-1.99649071,-4.31784148,0.13531043,0.99894845,0.01605038,0.03771105,-0.00106643,-0.13173611,-0.03016501,-0.01010781,0,0,0,0,1,1
5,1.17,113,0.97847831,0.15930764,0.1631716,-3.43468714,-0.67561477,-1.1310689,-10.15713457,71.49341346,-88.10189001,1.87884569,4.9619411,-13.41636467,0.99100678,-0.01131363,-0.04107106,0.1173911,-0.01303183,-0.1099856,0.00104481,0,0,0,0,1,1
1,1.17,106,-0.1141165,-0.98683876,0.11584674,-5.05986977,39.17678833,-19.18450918,-41.11118475,0.78914191,-105.4661399,-1.41860531,3.46683073,13.01311793,0.99180846,0.01447185,-0.01764716,-0.1138774,0.16091909,0.10134111,-0.01831964,0,0,0,0,1,1
1,1.1701,96,0.0734514,-0.97590186,0.08637699,11.84881831,11.03045177,13.44458194,-54.69160843,-14.93715186,-83.80590057,1.90071011,-1.33901717,0.59415938,0.99945533,-0.01541105,0.01017139,-0.00569971,-0.03548876,0.01654139,-0.0184716,0,0,0,0,1,1
3,1.1799,115,0.99111861,0.10856516,0.07651611,-19.0614485,6.31300091,-10.54609776,-10.66647148,77.08171551,-66.16717377,-3.35634065,-4.1538496,0.31339041,0.99891347,0.01916381,0.03630813,-0.00175771,-0.04369588,-0.03349771,0.00093371,0,0,0,0,1,1
5,1.18,114,0.99508685,0.15494159,0.15756314,-5.99967146,-0.67870444,-1.75931163,-10.15713457,71.96111061,-88.41443848,1.88184433,4.93801919,-13.35411516,0.99107896,-0.01131188,-0.04087148,0.11685334,-0.01456744,-0.10691309,0.01483085,0,0,0,0,1,1
1,1.18,107,-0.15981665,-0.96815808,0.10364301,-3.4719717,34.60367103,-14.14411014,-41.11118475,0.78914191,-105.4661399,-1.41007161,3.60089817,13.36495399,0.99141954,0.01453137,-0.01875111,-0.11694004,0.30736899,0.08113949,-0.04115086,0,0,0,0,1,1
1,1.1801,97,0.03343673,-1.00508916,0.13615115,11.11606636,14.75305367,14.60104887,-54.69160843,-14.93715186,-83.80590057,4.0853119,-1.77318454,1.13808656,0.998881,-0.03607814,0.01351383,-0.01950118,0.00193973,0.06914601,0.00851068,0,0,0,0,1,1
3,1.1899,116,0.98780477,0.13615173,0.06458491,-11.07136671,3.56134884,-7.90633774,-10.66647148,77.08171551,-66.16717377,-3.41601707,-4.11107403,0.43537495,0.99887437,0.0196457,0.03693174,-0.00169715,-0.01168306,-0.01999011,-0.00119143,0,0,0,0,1,1
5,1.19,115,1.01141655,0.18839018,0.11700894,-11.15984535,-0.40383676,-4.0939579,-10.34491874,71.03186035,-87.75111097,1.47971571,4.99344873,-13.46108713,0.99101691,-0.01791659,-0.0417465,0.11763774,-0.01387117,-0.06305103,0.0354895,0,0,0,0,1,1
1,1.1901,98,0.00551309,-1.01111699,0.13000311,11.16064105,15.14554014,16.01814484,-54.89611879,-14.06011595,-84.0981131,4.10601891,-1.95300531,1.36600914,0.99876119,-0.0371078,0.01498676,-0.01157044,0.01540014,0.04694193,0.01351754,0,0,0,0,1,1
3,1.1999,117,1.01513361,0.09711104,0.06917755,-5.84945716,1.3953118,-5.88197565,-10.34491874,77.14118958,-65.85793304,-3.45461631,-4.17445984,0.49507663,0.99884581,0.01996034,0.03740587,-0.00319118,-0.05477091,-0.01961153,0.01340168,0,0,0,0,1,1
5,1.3,116,1.04043698,0.1315308,0.01111991,-10.80690765,-4.59360166,-4.60953045,-10.51031517,71.99649048,-88.04443359,1.4913991,4.96639199,-13.14403381,0.99114657,-0.01791016,-0.04153315,0.11576116,-0.01883109,0.05516114,0.06083151,0,0,0,0,1,1
3,1.3099,118,1.03941834,0.0496159,0.04475781,-1.66011098,0.81641078,-4.59889116,-19.93569183,76.6734848,-65.53639111,-3.47013173,-4.31815304,0.51348381,0.99881691,0.03008831,0.03779187,-0.003335,-0.10177189,0.01038795,0.04466713,0,0,0,0,1,1
5,1.31,117,1.06787539,0.19999041,-0.04549105,-14.31568336,-9.67751075,-3.01106404,-10.49108505,71.13033905,-87.91750549,1.53510499,4.97450066,-11.9804697,0.99150031,-0.01810141,-0.0416013,0.11349484,-0.00691194,0.14541661,0.09688336,0,0,0,0,1,1
3,1.3199,119,1.01437174,0.03435997,0.01441496,-1.56640649,-1.16114103,-1.81618846,-10.31569671,77.11888184,-65.59485616,-3.46468711,-4.34608173,0.54155551,0.99881851,0.0300193,0.03804161,-0.00357413,-0.11318193,0.04110809,0.01889031,0,0,0,0,1,1
5,1.31,118,1.03894484,0.37067404,-0.03311136,-19.0316767,-10.4641161,0.46815886,-10.11800155,70.00876617,-87.19671394,1.58104067,5.01863813,-11.76887035,0.99168341,-0.01857471,-0.04197151,0.1116814,0.06817134,0.16418177,0.09085456,0,0,0,0,1,1
3,1.3199,130,1.0196371,0.11687595,0.03649983,-1.48134665,-1.54161971,0.13009165,-10.19877143,76.19347991,-65.15638733,-3.15410104,-4.67148109,0.69693166,0.99875498,0.01811168,0.04091043,-0.00491717,-0.03575061,0.01011986,0.03965607,0,0,0,0,1,1
5,1.33,119,1.01714117,0.38078377,-0.00114568,-7.01669573,-8.18177319,4.7688756,-10.11800155,70.00876617,-87.19671394,1.6179961,5.09490718,-11.68318081,0.99173056,-0.01891786,-0.04161141,0.11095931,0.09446611,0.14011189,0.08676788,0,0,0,0,1,1
1,1.3301,99,-0.10819383,-0.98054314,0.14163919,13.16881801,19.94851638,16.34380913,-54.89611879,-14.61560917,-83.30897511,5.56488751,-5.40086985,4.9897541,0.99666667,-0.05049119,0.04490311,-0.04571536,0.11508016,0.04714114,-0.01346084,0,0,0,0,1,1
3,1.3399,131,1.01611317,0.18765011,-0.01504781,16.97448349,-1.15873837,8.15064811,-10.19877143,76.19347991,-65.15638733,-3.18337798,-4.60793109,0.41500198,0.99880338,0.01760495,0.04018809,-0.00158777,0.13585941,0.03949849,0.04813487,0,0,0,0,1,1
5,1.34,110,0.99440056,0.41111916,0.07195391,3.9117844,-5.63747454,7.19638109,-10.37415886,71.01571631,-87.63519187,1.31876683,1.98593183,-11.17194015,0.99376607,-0.01187473,-0.01375741,0.10649573,0.16316161,0.08715761,0.07694016,0,0,0,0,1,1
1,1.3401,100,-0.1834111,-0.95670718,0.17791079,11.04681064,30.10608711,13.66739655,-54.7793045,-14.17714119,-83.571051,5.68144018,-5.56841995,5.16601697,0.99641801,-0.05168613,0.04618914,-0.04813315,0.16300455,0.07014615,-0.04966306,0,0,0,0,1,1
3,1.3499,131,1.00336111,0.43340771,-0.0151681,54.4613533,-1.87851979,13.73116016,-10.63713946,77.57965088,-65.85793304,-3.05908895,-4.504179,-0.11354181,0.99886996,0.01671413,0.03915346,0.0011158,0.18363187,0.01174618,0.03519444,0,0,0,0,1,1
5,1.35,111,0.93914878,0.44160137,0.1330511,10.93814387,-3.59764504,6.71753073,-10.31569671,71.10111084,-87.69365691,1.35031415,3.06610955,-11.17193301,0.9936465,-0.01314356,-0.01440406,0.10738169,0.19457461,0.03115111,0.03633115,0,0,0,0,1,1
1,1.3501,101,-0.18376043,-0.94745018,0.15910711,9.55578041,19.83839798,9.39043903,-54.80853653,-14.03098488,-83.77667136,5.7739171,-5.69378519,5.5451088,0.99610961,-0.05164398,0.04711185,-0.05074888,0.15980514,0.04979376,-0.06663913,0,0,0,0,1,1
3,1.3599,133,1.00138347,0.49583174,0.10955314,63.01641678,1.13354683,10.8113753,-10.69570351,77.34580131,-66.81156317,-1.97584343,-4.41750691,-0.75981017,0.99888819,0.01610119,0.03844175,0.00761635,0.33358111,-0.1108453,0.03731131,0,0,0,0,1,1
5,1.36,111,0.88746458,0.40583938,0.13634045,15.14466896,-1.56183379,5.77601957,-10.14031019,71.70417786,-87.81057739,1.38783646,3.13531518,-11.41599751,0.99348646,-0.01366408,-0.01493868,0.10864086,0.18163967,0.01301701,-0.01114911,0,0,0,0,1,1
1,1.3601,101,-0.34774178,-0.94186484,0.08911145,5.18745985,17.13414993,4.86160088,-54.69160843,-14.99561501,-84.11744904,5.81107631,-5.77191593,5.8066106,0.99603313,-0.05310169,0.04764968,-0.05307478,0.31148555,-0.01135993,-0.07673705,0,0,0,0,1,1
3,1.3699,134,1.00718546,0.11911659,0.18519631,65.45661689,1.08178131,9.07750893,-10.40339088,77.51119446,-66.88101711,-1.89115943,-4.36863041,-1.41941333,0.9988668,0.01567999,0.03778693,0.01333494,0.0517568,-0.15709364,0.01158459,0,0,0,0,1,1
5,1.37,113,0.87473488,0.30500411,0.14064149,18.00515665,-1.77118136,4.15150149,-19.90645981,71.58111571,-87.71188513,1.4318161,3.18849349,-11.58615685,0.99330103,-0.01413188,-0.01531117,0.11013391,0.10317148,-0.03560758,-0.06181744,0,0,0,0,1,1
1,1.37,108,0.0770411,-1.03715815,-0.15947194,13.01169514,-73.90557861,19.41491485,-41.4437194,1.1177111,-104.7939114,-1.97900605,1.11511783,11.40774059,0.99447685,0.01778079,-0.01664505,-0.09983477,0.05376903,-0.17597774,0.0193116,0,0,0,0,1,1
1,1.3701,103,-0.16681679,-0.96451147,0.00147738,-0.46551575,15.9513588,0.45613335,-54.69160843,-14.99561501,-84.11744904,5.81411934,-5.79417671,5.96519913,0.99595107,-0.05310909,0.04777406,-0.05446001,0.1417009,-0.10946138,-0.0495161,0,0,0,0,1,1
3,1.3799,135,0.95001537,0.01547013,0.10395011,60.37809371,-1.60555171,11.31994843,-10.63713946,77.71580719,-67.37796011,-3.14116447,-1.76611111,-1.819556,0.99901414,0.01799445,0.01344669,0.01514794,-0.11971893,-0.05553334,-0.04753617,0,0,0,0,1,1
5,1.38,114,0.93496698,0.13386806,0.09857811,11.08551741,1.15161451,3.87104964,-19.90645981,71.58111571,-87.71188513,1.45010018,3.11150175,-11.79711451,0.99308371,-0.01437081,-0.01555468,0.11197161,0.00687169,-0.01915549,-0.03006017,0,0,0,0,1,1
1,1.38,109,-0.00965494,-1.071917,-0.09875514,8.01357769,-61.91810811,17.46154785,-43.34989548,1.49079116,-104.969307,-1.97941901,1.04956169,10.7709465,0.9950465,0.01755661,-0.01536016,-0.09417105,0.1406638,-0.11798358,0.06098113,0,0,0,0,1,1
1,1.3801,104,-0.11079084,-0.98330165,-0.04110308,-4.99095488,-4.58604611,-1.46716131,-55.13007736,-14.17714119,-83.86436461,4.11815405,-6.31654115,6.47591819,0.99613166,-0.03891796,0.05194448,-0.05833711,0.09535047,-0.14546534,-0.01009748,0,0,0,0,1,1
3,1.3899,136,0.96534118,0.01630397,0.0809865,11.14407005,-1.41317834,8.89905548,-10.34491874,77.60888671,-66.76410675,-3.09365916,-1.69087519,-3.03451873,0.99899191,0.01759856,0.01174881,0.01709481,-0.09617085,-0.01913173,-0.03314151,0,0,0,0,1,1
5,1.39,115,0.97746613,0.11109985,0.06556855,14.14000931,1.86158313,4.61014761,-10.11800155,71.13033905,-87.57671881,1.51191758,3.85348868,-13.11610355,0.99146949,-0.01571568,-0.03085917,0.11571877,-0.03538535,-0.00961034,0.00001063,0,0,0,0,1,1
1,1.39,110,0.01918571,-1.03816964,-0.05186759,1.36478133,-41.37710108,16.8419184,-43.34989548,1.49079116,-104.969307,-3.00778079,1.88704681,10.35414114,0.99540365,0.01761957,-0.01401616,-0.09061108,0.10618803,-0.06853049,0.031111,0,0,0,0,1,1
1,1.3901,105,-0.01815781,-0.96096605,0.01318109,-6.66911115,-18.30999374,-1.57141067,-54.98391105,-13.94319166,-83.54181379,4.05949545,-6.17811971,6.19956731,0.99630811,-0.03817179,0.05173366,-0.0558967,-0.01518033,-0.06741865,-0.03488017,0,0,0,0,1,1
3,1.3999,137,0.97935057,0.05061909,0.10369101,-0.09990959,-1.98443747,5.17841415,-10.34491874,77.60888671,-66.76410675,-3.05840707,-1.64155817,-3.03375149,0.99901175,0.01717997,0.01131737,0.01706981,-0.07444184,-0.05505569,-0.01776319,0,0,0,0,1,1
5,1.4,116,0.98338073,0.1936416,0.01573613,16.40544118,1.01488711,5.84190559,-10.08184814,71.61034393,-88.16135406,1.55331088,3.91318417,-13.4760704,0.99117838,-0.01611811,-0.03118549,0.1179879,-0.06506636,0.01606561,-0.00566691,0,0,0,0,1,1
1,1.4,111,0.0936841,-1.00810196,-0.00877147,-0.17706086,-14.53165436,13.81365104,-43.61197989,0.70154913,-104.4139099,-3.14106386,1.79669081,10.11643518,0.99556311,0.01868908,-0.01319107,-0.08863896,0.01719461,-0.01155818,0.01165113,0,0,0,0,1,1
1,1.4001,106,-0.01481577,-0.95011784,0.1060003,-6.51368331,-45.79011835,-1.58303785,-54.7793045,-14.81011761,-83.54181379,4.00711788,-6.11601105,5.74916601,0.99656796,-0.03758446,0.0513661,-0.05193871,-0.00840738,0.01631948,-0.04541978,0,0,0,0,1,1
3,1.4099,138,0.95804144,0.09168051,0.07919834,-6.84575114,-3.08101584,1.74108553,-19.90645981,77.57965088,-67.08564758,-3.0317151,-1.61396431,-1.96445117,0.99903977,0.01703648,0.01110911,0.01645443,-0.01800348,-0.03587484,-0.03603861,0,0,0,0,1,1
5,1.41,117,0.96109045,0.19375411,0.01635857,30.11870155,1.80963178,7.18551399,-10.14031019,71.37649536,-88.17818117,1.57141656,3.97918677,-13.77907753,0.99183731,-0.01643481,-0.03176761,0.1106167,-0.05666619,0.0151103,-0.0166449,0,0,0,0,1,1
1,1.41,111,0.1741517,-1.0065154,0.01337151,-4.37710714,-16.93006315,8.07018484,-44.05144501,0.90616781,-104.9108419,-3.10617194,1.71814117,9.9607171,0.99568619,0.01916783,-0.0115011,-0.08718833,-0.05400383,0.01183136,0.01931193,0,0,0,0,1,1
1,1.4101,107,-0.0686765,-0.9678008,0.14796601,-7.81041311,-51.55118114,-3.47007441,-55.3054657,-14.5863781,-83.0166616,3.94309568,-6.14008713,5.13194163,0.99684914,-0.03676144,0.05190096,-0.04739815,0.0380068,0.0691019,-0.03106054,0,0,0,0,1,1
3,1.4199,139,0.97430017,0.11491083,0.10186067,-10.15358868,-1.71075904,1.73680639,-19.55568504,77.08171551,-67.05641174,-3.01555117,-1.59311081,-1.86171146,0.99906904,0.01694968,0.01195331,0.01555163,0.0006617,-0.06314115,-0.01783344,0,0,0,0,1,1
5,1.41,118,0.95755161,0.10513986,0.01896481,34.38366699,6.51338387,8.10137446,-10.16954041,71.99035645,-88.74597931,1.56457138,4.04051685,-14.13370514,0.99144101,-0.0165304,-0.03111485,0.11370197,-0.04364931,0.0176917,-0.0163981,0,0,0,0,1,1
1,1.41,113,0.11051714,-0.99801345,0.04111171,-6.69145441,-17.19608688,3.11345143,-43.87606049,1.08155513,-103.9169846,-3.19311967,1.6890645,9.79498191,0.99579334,0.01988373,-0.01111661,-0.08575073,-0.10161659,0.03150147,0.01617446,0,0,0,0,1,1
1,1.4101,108,-0.05305166,-0.95596397,0.117114,-9.39911137,-53.89309311,-3.76597476,-55.3054657,-14.5863781,-83.0166616,3.8617186,-6.06090498,4.70477819,0.9971101,-0.03579548,0.05141076,-0.04174493,0.01183341,0.04966779,-0.04106906,0,0,0,0,1,1
