SensorId, TimeStamp (s), FrameNumber, AccX (g), AccY (g), AccZ (g), GyroX (deg/s), GyroY (deg/s), GyroZ (deg/s), MagX (uT), MagY (uT), MagZ (uT), EulerX (deg), EulerY (deg), EulerZ (deg), QuatW, QuatX, QuatY, QuatZ, LinAccX (g), LinAccY (g), LinAccZ (g), Pressure (kPa), Altitude (m), Temperature (degC), HeaveMotion (m),Rep,Clase2
1,0,0,0.06961966,-1.00972188,0.0179223,0.50199485,-0.15026334,0.3215034,-42.20988083,2.77696586,-110.1432343,-3.13023376,-5.04059839,6.54893064,0.99709815,0.02473129,0.04544374,-0.05584345,0.00371513,-0.00112238,0.01195072,0,0,0,0,1,2
2,0,0,0.08662145,-0.9932729,-0.01859366,-0.09761718,0.86360776,-0.20396407,-49.13768005,-16.48640823,-86.31978607,-1.15290725,2.14593935,12.9467001,0.99337864,0.012106,-0.01747135,-0.11290275,-0.00664414,0.00099726,-0.00303858,0,0,0,0,1,2
4,0,0,-0.07934046,-0.99493742,-0.06228347,0.01374327,-0.67741048,0.08013745,-28.1204319,18.24028015,-100.7307816,-0.13091977,-0.18212222,-0.34533581,0.99999362,0.00114727,0.00158586,0.00301543,0.00674497,0.00010934,-0.00000653,0,0,0,0,1,2
1,0.01,1,0.06390746,-1.00837028,0.02103693,-0.1967286,-0.08885743,0.25986493,-42.35603714,2.89389062,-110.3770828,-3.13228297,-5.04316378,6.54831982,0.99709713,0.02474806,0.04546692,-0.05583666,0.00912772,0.00206824,0.00993904,0,0,0,0,1,2
2,0.01,1,0.08839251,-0.99137044,-0.01966194,-0.13385653,0.57015485,-0.17207621,-51.06694031,-16.86641312,-87.45980835,-1.15378165,2.14777327,12.95241928,0.99337262,0.01211625,-0.01748578,-0.11295259,-0.0084589,-0.00005941,-0.00486259,0,0,0,0,1,2
4,0.01,1,-0.07997679,-0.9943732,-0.06161703,0.04902679,-0.66002065,0.08056713,-28.1204319,18.24028015,-101.3154068,-0.12996009,-0.18334284,-0.35182136,0.99999338,0.00113902,0.00159648,0.00307202,0.00740415,0.00072613,-0.00056433,0,0,0,0,1,2
1,0.02,2,0.06211526,-1.00507474,0.01995347,-0.72944379,-0.44261116,0.26821116,-42.1806488,2.42619109,-109.9970779,-3.13519788,-5.14447069,6.53951597,0.99706292,0.02472549,0.04634781,-0.05573253,0.00989121,0.00130699,0.00637765,0,0,0,0,1,2
2,0.02,2,0.0926061,-0.99337757,-0.01782929,0.00968095,0.11467364,0.10065021,-50.77462769,-17.01256943,-86.72902679,-1.15358949,2.14678907,12.95358753,0.99337173,0.0121138,-0.01747732,-0.11296262,-0.01258677,0.00177008,-0.00267644,0,0,0,0,1,2
4,0.02,2,-0.07775262,-0.99548471,-0.06189299,-0.33791959,-0.71354622,0.18220894,-28.29582024,18.12335587,-101.3154068,-0.13282369,-0.18560749,-0.35904396,0.99999315,0.00116417,0.00161609,0.00313511,0.00507144,0.00054098,0.00040492,0,0,0,0,1,2
1,0.03,3,0.06618728,-1.00334036,0.01726887,-0.4058263,-0.61272639,0.41519353,-42.1806488,2.42619109,-109.9970779,-3.13974762,-5.14847183,6.53401995,0.9970631,0.02476527,0.04638364,-0.05568183,0.00421853,-0.0012048,0.00524699,0,0,0,0,1,2
2,0.03,3,0.0886407,-0.99181628,-0.01851781,0.20605066,-0.37239772,0.215137,-50.86231995,-15.81408882,-86.34902191,-1.16312623,2.21633506,12.9450922,0.9933669,0.01226346,-0.01807173,-0.11289525,-0.00841073,0.0011127,-0.00439476,0,0,0,0,1,2
4,0.03,3,-0.07528356,-0.99451768,-0.06153565,-0.3732636,-0.8174175,0.16310386,-28.646595,17.91873741,-100.2338486,-0.13595454,-0.18775301,-0.36733854,0.99999285,0.00119167,0.00163464,0.00320756,0.00264152,0.00089961,-0.00075082,0,0,0,0,1,2
1,0.04,4,0.06579241,-1.00260448,0.01721679,-0.19368094,-0.45396969,0.54050338,-42.41449738,2.60157847,-110.1724625,-3.14205551,-5.15377569,6.52973843,0.99706274,0.02478439,0.04642998,-0.05564227,0.00440433,-0.00115387,0.00446625,0,0,0,0,1,2
2,0.04,4,0.08543371,-0.99262249,-0.01221275,0.22364685,-0.51045877,0.21332052,-49.80999756,-17.04179955,-86.90441132,-1.16131127,2.21410012,12.93993855,0.99337256,0.01224471,-0.01805469,-0.11285013,-0.00426918,0.00753557,-0.00368637,0,0,0,0,1,2
4,0.04,4,-0.07421447,-0.99346614,-0.06090325,-0.14397331,-1.02446139,0.10896629,-28.52966881,18.26951218,-100.8769379,-0.12731877,-0.2011057,-0.37851897,0.99999249,0.00111685,0.0017513,0.00330514,0.00156478,0.00145311,-0.00191,0,0,0,0,1,2
1,0.05,5,0.0692264,-1.00184977,0.01800154,-0.21295522,-0.33253318,0.51051307,-42.00526047,2.57234716,-109.8801498,-3.14447522,-5.1588006,6.5266943,0.99706173,0.02480413,0.04647421,-0.05561348,0.00081562,-0.00027218,0.00433569,0,0,0,0,1,2
2,0.05,5,0.08470114,-0.99459517,-0.0109069,0.08211389,0.19720118,0.24066223,-49.80999756,-17.04179955,-86.90441132,-1.16032815,2.21173167,12.94192314,0.99337113,0.01223418,-0.01803492,-0.11286701,-0.00349376,0.00881895,-0.00174809,0,0,0,0,1,2
4,0.05,5,-0.0724546,-0.9932965,-0.06199605,-0.07288054,-1.00728166,0.14433433,-28.7927494,17.74334908,-100,-0.12730429,-0.20317541,-0.38851619,0.99999213,0.00111694,0.00176926,0.0033924,-0.00036828,0.00023352,-0.00213506,0,0,0,0,1,2
1,0.06,6,0.0697125,-1.00224602,0.01790728,0.03475043,-0.08634788,0.48307943,-42.67757797,2.77696586,-109.558609,-3.14424276,-5.16361666,6.52570105,0.99706048,0.02480007,0.04651578,-0.05560368,0.00031105,-0.0003806,0.00480505,0,0,0,0,1,2
2,0.06,6,0.07893652,-0.99565601,-0.01587388,0.08332925,0.64424062,0.29834935,-50.77462769,-16.48640823,-86.64133453,-1.15895665,2.20887613,12.9483881,0.99336535,0.01222051,-0.01801082,-0.11292264,0.00226396,0.00382462,-0.00093964,0,0,0,0,1,2
4,0.06,6,-0.07163329,-0.99317151,-0.06217932,0.12116043,-0.90297574,0.14682671,-29.34814262,17.91873741,-100.8184738,-0.12544246,-0.20519738,-0.39732826,0.99999183,0.00110089,0.00178688,0.00346929,-0.00121526,0.00002682,-0.00230541,0,0,0,0,1,2
1,0.07,7,0.07439257,-1.00156415,0.02118271,0.40896216,0.09185493,0.40029466,-42.61911774,2.74773455,-109.9093857,-3.1088047,-5.09196377,6.52336025,0.99709624,0.02452896,0.04587471,-0.0556162,-0.00412845,0.00275173,0.00507989,0,0,0,0,1,2
2,0.07,7,0.0817636,-0.99610019,-0.01152579,0.15575995,0.60498303,0.48935905,-50.5407753,-16.19409561,-86.67056274,-1.15690649,2.20410132,12.95446205,0.99336052,0.012199,-0.01797081,-0.11297466,-0.00061114,0.00814651,-0.00037594,0,0,0,0,1,2
4,0.07,7,-0.07163229,-0.9926309,-0.06190744,0.40420941,-0.55666053,0.24028228,-29.34814262,17.91873741,-100.8184738,-0.12100718,-0.20794271,-0.40243554,0.99999166,0.00106235,0.00181092,0.00351381,-0.00122047,0.00020512,-0.00286015,0,0,0,0,1,2
1,0.08,8,0.07685451,-1.00017309,0.02412424,0.41008773,0.05721999,0.27792588,-42.61911774,2.74773455,-109.9093857,-3.10470247,-5.09479141,6.52322817,0.99709606,0.02449189,0.04589729,-0.05561596,-0.00581776,0.00531061,0.00420347,0,0,0,0,1,2
2,0.08,8,0.08677024,-0.99594802,-0.01123884,-0.16680886,0.64503849,0.37096527,-50.51154709,-16.10640144,-87.25518799,-1.06758058,2.30735683,12.95813084,0.99334753,0.01152672,-0.01895362,-0.11299875,-0.00522753,0.00803227,-0.00030616,0,0,0,0,1,2
4,0.08,8,-0.07307778,-0.99109703,-0.06359982,0.72344863,-0.50492388,0.34690037,-28.88044357,18.44489861,-101.1400147,-0.11344573,-0.21171765,-0.40673152,0.99999148,0.00099655,0.00184406,0.00355121,0.0002602,-0.0016957,-0.0041853,0,0,0,0,1,2
1,0.09,9,0.07481912,-0.9987132,0.02643924,0.41542396,-0.34233564,0.22861408,-42.20988083,2.952353,-109.1493683,-3.10080075,-5.09704638,6.51913261,0.99709803,0.02445844,0.04591414,-0.05558131,-0.00405603,0.00765775,0.00260886,0,0,0,0,1,2
2,0.09,9,0.09095983,-0.99368227,-0.01728225,-0.20302287,0.4036721,0.38598907,-50.51154709,-16.10640144,-87.25518799,-1.06927335,2.30357146,12.9623251,0.99334383,0.01153837,-0.01891872,-0.11303516,-0.00817636,0.00083294,-0.00236386,0,0,0,0,1,2
4,0.09,9,-0.07424699,-0.99149698,-0.06541236,0.65317601,-0.67829472,0.34397408,-28.93890572,18.56182289,-100.847702,-0.14258139,-0.24398738,-0.41344079,0.99999052,0.00125193,0.00212468,0.00361058,0.00120143,-0.0034434,-0.00359606,0,0,0,0,1,2
1,0.1,10,0.06974347,-1.00271273,0.02541894,0.52702278,-0.6885969,0.26694527,-42.29757309,2.952353,-109.4416809,-3.09602952,-5.09962749,6.51141882,0.99710184,0.02441871,0.04593264,-0.05551544,0.00153743,0.00627137,0.00566631,0,0,0,0,1,2
2,0.1,10,0.08850245,-0.99411547,-0.02031148,-0.09483474,0.31199944,0.5934732,-50.42385101,-16.39871407,-86.67056274,-1.06995237,2.29769397,12.9655962,0.99334162,0.01153901,-0.01886677,-0.11306326,-0.00579153,-0.00218446,-0.00204098,0,0,0,0,1,2
4,0.1,10,-0.07584356,-0.99181032,-0.06268611,0.95387709,-0.90294492,0.34207135,-28.96813774,18.8249054,-101.0815506,-0.13242389,-0.24796619,-0.42155513,0.99999028,0.00116357,0.00215964,0.00368124,0.00234022,-0.00038808,-0.00333467,0,0,0,0,1,2
1,0.11,11,0.06810134,-1.0060252,0.02024108,0.21891609,-0.30974427,0.0756167,-42.79450226,3.04004669,-109.6463013,-3.09406209,-5.10034037,6.50798607,0.99710357,0.0244026,0.04593715,-0.05548617,0.00359681,0.00080384,0.00829424,0,0,0,0,1,2
2,0.11,11,0.0827492,-0.99632221,-0.02214351,-0.09584253,-0.11855329,0.57093328,-50.3946228,-16.07716942,-87.13825989,-1.07101405,2.29196453,12.96455479,0.99334365,0.01154241,-0.01881615,-0.11305407,-0.00004988,-0.00398823,-0.00008666,0,0,0,0,1,2
4,0.11,11,-0.0786107,-0.99457103,-0.06243648,0.95447642,-0.9551928,0.37606329,-28.32505035,18.32797432,-100.9061661,-0.12221359,-0.25231108,-0.43017179,0.99998999,0.00107477,0.00219781,0.00375628,0.00484149,-0.00015007,-0.00040848,0,0,0,0,1,2
1,0.12,12,0.06928655,-1.00578928,0.02082599,-0.2844913,-0.03738312,-0.17003669,-42.47296143,2.89389062,-110.1139984,-3.05709481,-5.10494232,6.50281715,0.99711227,0.02408069,0.0459582,-0.05545484,0.00238386,0.00125742,0.00828558,0,0,0,0,1,2
2,0.12,12,0.08428633,-0.99661136,-0.01960719,0.064126,-0.41118604,0.47837296,-50.48231506,-16.66179466,-86.64133453,-1.07072031,2.28710556,12.96049976,0.99334854,0.01153442,-0.01877473,-0.11301857,-0.00166322,-0.00145036,0.00026565,0,0,0,0,1,2
4,0.12,12,-0.07984766,-0.99375528,-0.06037735,0.70730776,-0.99030221,0.37434748,-29.20198822,18.32797432,-101.1400147,-0.11445621,-0.25666693,-0.4393132,0.99998963,0.0010074,0.00223599,0.00383595,0.00606214,0.00169661,-0.00125888,0,0,0,0,1,2
1,0.13,13,0.07114106,-1.00270009,0.02297019,-0.12279049,-0.08763811,-0.15581053,-42.47296143,2.89389062,-110.1139984,-3.0583818,-5.10335636,6.5021739,0.99711281,0.02409294,0.04594489,-0.05544913,0.00003836,0.00314273,0.00567114,0,0,0,0,1,2
2,0.13,13,0.08076999,-0.99709451,-0.01438732,0.09945223,-0.70529568,0.50948173,-50.74539566,-16.25255775,-86.55363464,-1.00666356,2.24907589,12.96295929,0.99335927,0.01094215,-0.01850799,-0.11302722,0.00163822,0.00348263,0.00058634,0,0,0,0,1,2
4,0.13,13,-0.08001981,-0.99356729,-0.0587132,0.49392962,-0.7649349,0.30714428,-29.20198822,18.62028694,-101.1400147,-0.10898136,-0.26021057,-0.44639143,0.99998939,0.00095988,0.00226704,0.00389764,0.00618522,0.0032464,-0.00153408,0,0,0,0,1,2
1,0.14,14,0.07147537,-1.00235832,0.02270377,0.26994979,-0.04840492,-0.03626017,-42.50219345,2.54311609,-109.9093857,-3.05571818,-5.10300732,6.5012722,0.99711394,0.0240703,0.04594037,-0.05544244,-0.00033806,0.00287542,0.00536622,0,0,0,0,1,2
2,0.14,14,0.08042963,-0.99593353,-0.00982055,-0.02533544,-0.65393573,0.58134216,-50.74539566,-16.25255775,-86.55363464,-1.0074563,2.24315095,12.95653248,0.99336666,0.01094216,-0.01845646,-0.11297131,0.0013978,0.00722148,-0.00062181,0,0,0,0,1,2
4,0.14,14,-0.07950164,-0.99368739,-0.05871416,0.26290438,-0.66072965,0.22066334,-28.1204319,17.80181122,-100.6723175,-0.06951576,-0.32438999,-0.45832735,0.9999879,0.00061795,0.00282838,0.00400135,0.00533989,0.00301242,-0.00144918,0,0,0,0,1,2
1,0.15,15,0.07290291,-1.00517166,0.02245848,0.16412663,-0.18867789,-0.00601278,-42.38526535,2.80619693,-109.9386139,-3.05420804,-5.10292339,6.49914026,0.99711537,0.02405806,0.04593847,-0.05542452,-0.00129901,0.00238997,0.00834341,0,0,0,0,1,2
2,0.15,15,0.07651143,-0.9954437,-0.01264807,-0.02476818,-0.3084431,0.55045205,-50.59923935,-16.39871407,-86.46594238,-1.00794864,2.23759556,12.9535532,0.99337047,0.01094049,-0.0184081,-0.11294523,0.00519515,0.00440768,-0.00128364,0,0,0,0,1,2
4,0.15,15,-0.07734161,-0.99642038,-0.05983592,-0.17979823,-0.55705816,0.15053801,-28.58813095,17.53873062,-100.8769379,-0.07091387,-0.32623696,-0.46390602,0.9999876,0.00063036,0.00284442,0.00405008,0.00215127,0.00158287,0.00119332,0,0,0,0,1,2
1,0.16,16,0.07466564,-1.00282454,0.01968072,0.41557369,-0.20302927,-0.11223686,-42.76527405,2.71850324,-110.6986237,-3.05017853,-5.1017952,6.49648666,0.99711794,0.02402463,0.04592615,-0.05540333,-0.00343249,-0.0002534,0.00610973,0,0,0,0,1,2
2,0.16,16,0.07272023,-0.99645209,-0.01343794,-0.27507257,-0.06332429,0.48612824,-50.21923447,-16.66179466,-86.758255,-1.01074529,2.23272848,12.95311737,0.99337149,0.01095988,-0.01836319,-0.11294162,0.00893658,0.00365036,-0.00044155,0,0,0,0,1,2
4,0.16,16,-0.07755845,-0.99590075,-0.06025941,-0.28491542,-0.60964197,0.20139967,-28.44197655,18.56182289,-100.2338486,-0.07329535,-0.32861981,-0.47004846,0.99998724,0.00065138,0.0028651,0.00410375,0.00236307,0.00116963,0.00071658,0,0,0,0,1,2
1,0.17,17,0.07174816,-1.00410867,0.01940627,0.84487331,-0.0936131,-0.28445747,-42.47296143,2.77696586,-110.5524674,-3.05496383,-5.09025812,6.49592686,0.99712151,0.02407231,0.04582797,-0.05539947,-0.00027787,-0.00069003,0.00688039,0,0,0,0,1,2
2,0.17,17,0.07242334,-0.9951157,-0.01262778,-0.11355655,0.24621652,0.45307949,-51.06694031,-16.48640823,-86.37825012,-1.01166153,2.22823954,12.95570278,0.9933697,0.01096382,-0.01832312,-0.11296393,0.0090946,0.00448599,-0.00179176,0,0,0,0,1,2
4,0.17,17,-0.07603431,-0.99984944,-0.06104621,-0.25023124,-0.54000431,0.16783734,-29.43583679,17.97719955,-99.97076416,-0.07539319,-0.33062837,-0.4754951,0.99998701,0.00066989,0.00288252,0.00415134,0.00052735,0.00065019,0.00459043,0,0,0,0,1,2
1,0.18,18,0.07114034,-1.00390172,0.01804215,0.72559673,-0.51192528,-0.42000449,-41.82987213,2.3384974,-110.4355469,-3.04803252,-5.08601952,6.48977995,0.99712747,0.02401659,0.04578644,-0.05534983,0.0004538,-0.00198612,0.00646865,0,0,0,0,1,2
2,0.18,18,0.07533927,-0.99447328,-0.01590271,-0.2566348,0.47348833,0.36991206,-50.71616364,-17.18795586,-85.88131714,-1.01649141,2.1898675,12.9649334,0.9933669,0.01096943,-0.01798482,-0.1130425,0.00593542,0.00125414,-0.0023183,0,0,0,0,1,2
4,0.18,18,-0.07511762,-1.00066745,-0.06083569,-0.23142236,-0.50601399,0.25535747,-29.43583679,17.97719955,-99.97076416,-0.0773412,-0.33348581,-0.48054537,0.99998677,0.00068712,0.00290735,0.00419548,-0.00048828,0.00095659,0.00532903,0,0,0,0,1,2
1,0.19,19,0.07144334,-1.00843441,0.0197377,0.71809733,-1.38093066,-0.31347764,-41.82987213,2.3384974,-110.4355469,-3.04179764,-5.08266544,6.4750104,0.99713719,0.02396992,0.04575117,-0.05522465,0.00095573,-0.00074805,0.01108961,0,0,0,0,1,2
2,0.19,19,0.07819197,-0.99413306,-0.01942464,-0.38205907,0.38845199,0.37026203,-50.71616364,-17.18795586,-85.88131714,-1.01999438,2.18623519,12.96904278,0.99336314,0.01099686,-0.01794949,-0.11307846,0.0025521,-0.00217932,-0.00255661,0,0,0,0,1,2
4,0.19,19,-0.07516206,-0.99807954,-0.05775164,-0.00155899,-0.52304727,0.27359611,-29.40660667,18.12335587,-100.5261612,-0.02092111,-0.34572521,-0.4899863,0.99998635,0.00019547,0.00301621,0.00427645,-0.00034339,0.00364028,0.00256989,0,0,0,0,1,2
4,0.2,20,-0.07581485,-0.99676132,-0.05478645,0.17396492,-0.24525897,0.24381945,-28.73428726,18.21105003,-100.6723175,-0.01901194,-0.3483088,-0.49215686,0.99998611,0.00017896,0.00303882,0.00429535,0.0002437,0.00575793,0.00112459,0,0,0,0,1,2
2,0.21,20,0.07763791,-0.99485725,-0.01991894,-0.22344908,-0.17659815,0.11720859,-50.3946228,-15.81408882,-86.29055786,-1.02483976,2.18157458,12.96885967,0.99336356,0.01103425,-0.01790432,-0.11307734,0.0030363,-0.00257805,-0.00185906,0,0,0,0,1,2
4,0.21,21,-0.07784984,-0.99768329,-0.05399508,0.15568976,0.27414897,0.28625193,-28.23735809,16.60333252,-100.2630768,-0.01768018,-0.3509928,-0.48914161,0.99998623,0.00016736,0.0030623,0.004269,0.00216686,0.00657817,0.00213666,0,0,0,0,1,2
2,0.22,21,0.07606745,-0.99668908,-0.01527302,-0.08131194,-0.52152836,0.05917937,-50.16077042,-15.96024513,-86.52440643,-1.02607536,2.18089199,12.96369267,0.99336874,0.01104349,-0.01789768,-0.11303273,0.0046711,0.0020977,-0.00009353,0,0,0,0,1,2
4,0.22,22,-0.07691548,-0.9979012,-0.05560023,-0.05573265,0.49841169,0.3581171,-29.02659988,17.68488693,-100.6138535,-0.01864413,-0.35426605,-0.48400855,0.99998635,0.00017576,0.00309083,0.00422424,0.00115979,0.0049805,0.00238552,0,0,0,0,1,2
2,0.23,22,0.07424359,-0.99447596,-0.01529237,-0.06312092,-0.14022502,-0.04138896,-50.24846649,-16.07716942,-86.84594727,-0.9870677,2.09155512,12.97452164,0.99337697,0.01061909,-0.01716067,-0.11311547,0.0060057,0.00191891,-0.00240005,0,0,0,0,1,2
4,0.23,23,-0.07662812,-0.99584317,-0.05778055,-0.23118554,0.53203934,0.44469497,-28.52966881,18.09412384,-100.1753845,-0.02139843,-0.35839516,-0.47861025,0.99998641,0.0001998,0.00312677,0.00417721,0.0009407,0.0027235,0.00044798,0,0,0,0,1,2
1,0.24,20,0.0541546,-1.00203395,0.02095936,1.27783942,-0.31438676,-0.36504304,-41.80064392,1.8415668,-109.7924576,-2.96113658,-5.19181967,6.40484142,0.99714619,0.02324177,0.04664775,-0.0546193,0.0151279,-0.00043307,0.00222556,0,0,0,0,1,2
2,0.24,23,0.07175349,-0.9949311,-0.01244052,0.00871452,-0.05507134,-0.02368234,-50.24846649,-16.07716942,-86.84594727,-0.9870249,2.09178185,12.97396374,0.99337739,0.01061886,-0.01716273,-0.11311063,0.00735009,0.00425543,-0.00210279,0,0,0,0,1,2
4,0.24,24,-0.07606125,-0.99168557,-0.05869232,-0.3004804,0.35811603,0.51130283,-28.52966881,18.09412384,-100.1753845,-0.01966845,-0.3715992,-0.47534531,0.99998617,0.00018509,0.00324207,0.00414869,0.00054312,0.00160487,-0.00367589,0,0,0,0,1,2
1,0.25,21,0.05403207,-1.00510442,0.01779288,0.9687041,0.09911679,-0.45130122,-41.47909927,2.48465347,-110.3186188,-2.95133018,-5.18740988,6.40437365,0.99715018,0.02315883,0.04660462,-0.0546203,0.01576478,-0.00400119,0.00498642,0,0,0,0,1,2
2,0.25,24,0.07221879,-0.99715179,-0.01569038,0.06268609,0.20411834,-0.07364268,-50.5407753,-16.39871407,-86.78749084,-0.98621827,2.09255266,12.97597122,0.99337536,0.01061293,-0.01717003,-0.11312795,0.00698347,0.00100045,0.00013403,0,0,0,0,1,2
4,0.25,25,-0.07600608,-0.99221581,-0.0596904,-0.07270677,0.2903538,0.37231457,-29.34814262,15.96024513,-100.3800049,-0.02062634,-0.37514266,-0.47227824,0.99998617,0.00019349,0.00327296,0.00412196,0.00026401,0.00060512,-0.00309048,0,0,0,0,1,2
1,0.26,22,0.05682803,-1.00344121,0.01740519,0.46930575,-0.04570656,-0.47013083,-42.26834106,2.54311609,-110.1432343,-2.94662142,-5.18273878,6.40327072,0.9971534,0.02312062,0.04656151,-0.05461378,0.01281821,-0.00438164,0.00375207,0,0,0,0,1,2
2,0.26,25,0.07815327,-0.99654692,-0.01315643,0.04537349,0.51492578,-0.08727124,-50.59923935,-16.80795097,-86.23209381,-0.98535544,2.09351063,12.98108292,0.99337029,0.01060716,-0.01717871,-0.11317219,0.00104609,0.00351173,-0.00021494,0,0,0,0,1,2
4,0.26,26,-0.07431212,-0.99276423,-0.05706139,-0.03857197,0.27378625,0.28530973,-28.73428726,18.09412384,-100.4384689,-0.02122878,-0.37782615,-0.46940362,0.99998623,0.00019876,0.00329636,0.0040969,-0.00150532,0.0032677,-0.00281986,0,0,0,0,1,2
1,0.27,23,0.0619634,-1.00361764,0.01718439,0.16052061,0.33303425,-0.54037023,-42.4437294,2.4554224,-110.6693955,-2.99967074,-5.25492191,6.41807365,0.99710786,0.02354026,0.04721785,-0.05470297,0.00752803,-0.0044232,0.0047587,0,0,0,0,1,2
2,0.27,26,0.08235838,-0.99445093,-0.01586778,0.08036279,0.46588749,-0.2280466,-50.6577034,-16.07716942,-86.99210358,-0.98418951,2.09586716,12.98566723,0.99336553,0.01060006,-0.01719987,-0.1132119,-0.00321521,0.00078422,-0.00212991,0,0,0,0,1,2
4,0.27,27,-0.07431378,-0.99420804,-0.05763515,-0.12895198,0.4478271,0.16578038,-28.47120667,17.71411896,-100.2046204,-0.02285535,-0.37920627,-0.46494132,0.99998629,0.00021287,0.00330836,0.004058,-0.00163591,0.0028098,-0.00134733,0,0,0,0,1,2
1,0.28,24,0.06825308,-1.00464118,0.01462279,0.22992653,0.49019876,-0.50052774,-42.47296143,2.28003502,-110.5232391,-2.99699402,-5.25004101,6.42266464,0.99710804,0.02351751,0.04717505,-0.05474524,0.00052904,-0.00637765,0.00670188,0,0,0,0,1,2
2,0.28,27,0.08399919,-0.99542743,-0.01667732,-0.00974456,0.24337614,-0.26465228,-50.5407753,-16.01870728,-86.17362976,-0.98463178,2.14404941,12.98223782,0.9933607,0.01065084,-0.01761744,-0.11318494,-0.00456437,-0.00002955,-0.00107544,0,0,0,0,1,2
4,0.28,28,-0.07532957,-0.99304205,-0.05893484,-0.04068797,0.46531579,0.16646701,-28.99736977,18.35720444,-100.0584641,-0.02361876,-0.38058156,-0.46023586,0.99998641,0.00021945,0.00332034,0.00401697,-0.00057204,0.00146381,-0.00235949,0,0,0,0,1,2
1,0.29,25,0.07196067,-1.00506282,0.0196666,0.44192308,0.73598194,-0.54500353,-42.47296143,2.28003502,-110.5232391,-2.99200916,-5.24478531,6.42936468,0.99710786,0.023474,0.04712832,-0.0548069,-0.00291998,-0.00145824,0.00805629,0,0,0,0,1,2
2,0.29,28,0.08522123,-0.99605614,-0.01596407,0.00805702,0.00001652,-0.18032402,-50.5407753,-16.01870728,-86.17362976,-0.98455405,2.14585257,12.98220253,0.99336034,0.01065193,-0.01763315,-0.11318472,-0.00512878,0.0006898,-0.0003712,0,0,0,0,1,2
4,0.29,29,-0.07662939,-0.99186039,-0.05708762,0.29540449,0.55214739,0.2215369,-28.99736977,18.35720444,-100.0584641,0.02371056,-0.37840417,-0.45750335,0.99998665,-0.00019373,0.00330299,0.00399175,0.00080277,0.00301394,-0.00355693,0,0,0,0,1,2
1,0.3,26,0.07050278,-1.00318325,0.02253594,0.2444758,0.75100833,-0.49105912,-42.29757309,2.77696586,-110.2309265,-2.98899961,-5.24005413,6.43651915,0.99710691,0.02344723,0.04708717,-0.05487157,-0.00165835,0.00148175,0.00616868,0,0,0,0,1,2
4,0.3,30,-0.07631448,-0.99311799,-0.0558167,0.29602748,0.60370493,0.27446267,-29.1727562,17.94796753,-99.82460785,0.02618689,-0.38078782,-0.45112577,0.99998671,-0.00021544,0.00332387,0.00393602,0.00042284,0.00372857,-0.00240313,0,0,0,0,1,2
1,0.31,27,0.06387778,-1.00620592,0.02343199,0.17914616,0.1940807,-0.35533354,-42.03449249,2.13387895,-110.2601547,-2.9870472,-5.23656034,6.43822432,0.9971078,0.02343129,0.04705619,-0.05488808,0.00544318,0.00210949,0.00814721,0,0,0,0,1,2
2,0.31,29,0.08937202,-0.99274397,-0.01811057,-0.04257956,0.73532718,0.12600444,-50.19000244,-16.42794418,-86.0859375,-0.98372078,2.14514661,12.99454594,0.99334848,0.01064591,-0.01762671,-0.11329156,-0.00940858,-0.001471,-0.00350396,0,0,0,0,1,2
4,0.31,31,-0.07685814,-0.99382275,-0.05524027,0.27906388,0.62058163,0.32678592,-28.96813774,17.7725811,-100.3215408,0.0284845,-0.38367963,-0.44455662,0.99998695,-0.00023558,0.00334917,0.00387862,0.00087065,0.00430664,-0.00169785,0,0,0,0,1,2
1,0.32,28,0.0583781,-1.00494421,0.02466683,0.0217903,-0.08574246,-0.39901385,-41.7714119,2.39696002,-109.8216858,-2.93487811,-5.34261847,6.42270851,0.99708456,0.02293084,0.04795082,-0.05474847,0.0102718,0.00319428,0.00614563,0,0,0,0,1,2
2,0.32,30,0.09132928,-0.99289072,-0.01715001,0.04731353,0.57599586,0.28045589,-50.74539566,-16.39871407,-85.96901703,-0.98277843,2.14243793,13.00032711,0.99334329,0.01063596,-0.01760362,-0.11334138,-0.01139432,-0.0005176,-0.00327476,0,0,0,0,1,2
4,0.32,32,-0.07426026,-0.99609673,-0.05454805,0.27838042,0.48254275,0.25518483,-28.85121346,17.86027527,-99.94153595,0.03088178,-0.38593674,-0.43939811,0.99998701,-0.00025658,0.00336893,0.00383353,-0.00192227,0.00509209,0.00034469,0,0,0,0,1,2
1,0.33,29,0.06108234,-1.00557065,0.02379158,-0.14202729,0.068625,-0.27101368,-41.06986237,2.48465347,-110.1139984,-2.93622828,-5.33991146,6.42367029,0.99708486,0.02294354,0.04792811,-0.05475693,0.00631492,0.00160204,0.00722203,0,0,0,0,1,2
2,0.33,31,0.09040451,-0.99687433,-0.01635987,-0.38187236,0.59642285,0.32027796,-50.74539566,-16.39871407,-85.96901703,-0.9706049,2.24680018,12.99447155,0.99333197,0.01063242,-0.0185209,-0.11329444,-0.0098845,0.00022295,0.0006813,0,0,0,0,1,2
4,0.33,33,-0.07324611,-0.99804318,-0.05367134,0.29537025,0.2234076,0.16447724,-28.3835125,18.00643158,-100.7307816,0.03365067,-0.38744205,-0.43686703,0.99998701,-0.00028076,0.00338216,0.00381136,-0.00309468,0.00604043,0.00215996,0,0,0,0,1,2
1,0.34,30,0.06557941,-1.0050118,0.02000101,-0.46798527,0.36022604,-0.27512997,-41.06986237,2.48465347,-110.1139984,-2.94065237,-5.3372035,6.42804575,0.99708295,0.02298155,0.04790754,-0.05479382,0.00178485,-0.00207922,0.00711358,0,0,0,0,1,2
2,0.34,32,0.0871051,-0.99455941,-0.01867616,-0.27592164,0.18399802,0.20941095,-49.51768494,-17.36334419,-85.67670441,-0.97321534,2.24473906,12.99646473,0.99333012,0.01065334,-0.01850027,-0.11331202,-0.00532735,-0.00223807,-0.00172418,0,0,0,0,1,2
4,0.34,34,-0.06976159,-0.99667346,-0.05171291,0.59498316,0.05128148,0.09381545,-28.67582512,17.74334908,-100.6723175,0.1421002,-0.29474607,-0.44408834,0.99998844,-0.00123008,0.00257693,0.00387219,-0.00607821,0.00737929,0.00043483,0,0,0,0,1,2
1,0.35,31,0.0716263,-1.00475168,0.01760801,-0.44713825,0.16940784,-0.36878788,-42.06372452,2.30926633,-109.9093857,-2.9449842,-5.3335166,6.43051243,0.99708229,0.02302005,0.04787803,-0.05481438,-0.00419736,-0.00437192,0.00764549,0,0,0,0,1,2
2,0.35,33,0.08131173,-0.99812543,-0.01525426,-0.18673453,0.09736668,0.18995124,-50.21923447,-16.16486359,-86.05670929,-0.97501045,2.24285626,12.99754429,0.99332923,0.01066722,-0.01848208,-0.11332157,0.00058496,0.0012199,0.00159219,0,0,0,0,1,2
4,0.35,35,-0.06798519,-0.99665987,-0.05032485,0.59531432,-0.10463364,0.09149013,-28.67582512,17.74334908,-100.6723175,0.14812542,-0.29571187,-0.4446584,0.99998838,-0.00128261,0.00258556,0.00387701,-0.00663414,0.00731412,0.00020948,0,0,0,0,1,2
1,0.36,32,0.07493896,-1.00333631,0.01915941,-0.40710625,-0.09063097,-0.53432691,-41.97602844,2.98158431,-109.8509216,-2.94906282,-5.32812071,6.43037224,0.99708372,0.0230583,0.04783301,-0.05481279,-0.00759157,-0.00264054,0.0068861,0,0,0,0,1,2
2,0.36,34,0.07570949,-0.99850351,-0.01232903,-0.43575642,0.45864329,0.33671281,-50.48231506,-16.36948204,-86.49517822,-0.97898948,2.23956776,13.00237751,0.99332464,0.01069925,-0.01844918,-0.11336394,0.0061464,0.00419232,0.00173064,0,0,0,0,1,2
4,0.36,36,-0.06850781,-0.99634933,-0.05095934,0.54202884,-0.19107591,0.05517424,-28.41274452,17.74334908,-100,0.15366706,-0.2963734,-0.44615921,0.9999882,-0.00133091,0.00259154,0.00388998,-0.00610819,0.00656328,-0.00002494,0,0,0,0,1,2
1,0.37,33,0.08068313,-0.99978667,0.02141941,0.14154485,0.50675064,-0.74142587,-42.38526535,1.69541073,-110.3186188,-2.94360518,-5.16250229,6.43275785,0.99714756,0.02309249,0.04638994,-0.05487656,-0.012993,-0.00013124,0.00439186,0,0,0,0,1,2
2,0.37,35,0.07417972,-0.99662977,-0.01441624,-0.39846301,1.0432514,0.39563212,-50.07307816,-17.53873062,-86.29055786,-0.98211354,2.2357893,13.01303673,0.9933145,0.01072431,-0.01841234,-0.11345662,0.007533,0.00217512,-0.00020902,0,0,0,0,1,2
4,0.37,37,-0.06863774,-0.99560857,-0.05201849,0.43683806,-0.20901188,0.10655263,-28.3835125,18.15258598,-99.73691559,0.15819316,-0.29755154,-0.44787669,0.99998808,-0.00137033,0.002602,0.00390485,-0.00594553,0.00538789,-0.00068948,0,0,0,0,1,2
1,0.38,34,0.08238425,-1.0026499,0.02229636,0.47269899,1.24046731,-0.78618312,-42.00526047,2.42619109,-110.2893906,-2.93793368,-5.15495443,6.44446468,0.99714595,0.02304217,0.04632391,-0.05498257,-0.01201705,0.00041785,0.00733729,0,0,0,0,1,2
2,0.38,36,0.07984848,-0.99478549,-0.01719759,-0.29177877,0.73199826,0.39081454,-50.07307816,-17.53873062,-86.29055786,-0.99809074,2.22152305,13.0205183,0.99330813,0.01084991,-0.01827214,-0.11352324,0.00167962,-0.00050111,-0.00181314,0,0,0,0,1,2
4,0.38,38,-0.07239171,-0.99454653,-0.05270749,0.94971615,-0.20846999,0.16118717,-28.26658821,18.0356617,-100.2338486,0.16780959,-0.29928225,-0.44920552,0.99998784,-0.00145416,0.00261744,0.0039162,-0.00215613,0.00449287,-0.0014444,0,0,0,0,1,2
1,0.39,35,0.08393408,-1.0022788,0.02215735,0.41487634,1.60477698,-0.87615436,-42.00526047,2.42619109,-110.2893906,-2.93257165,-5.14658499,6.45988846,0.99714285,0.02299347,0.04625161,-0.055121,-0.01346595,0.00020908,0.00719048,0,0,0,0,1,2
2,0.39,37,0.08344872,-0.99455595,-0.01751053,-0.36325678,0.85406512,0.35806832,-50.71616364,-16.48640823,-86.55363464,-1.00100482,2.21809006,13.02927589,0.99329978,0.01087318,-0.01823866,-0.11359942,-0.00212563,-0.00059029,-0.0018926,0,0,0,0,1,2
4,0.39,39,-0.07496125,-0.99434859,-0.05418486,0.98493665,0.06850222,0.20025946,-28.85121346,18.41566849,-100.2046204,0.21069574,-0.31737185,-0.44660884,0.99998701,-0.00182785,0.00277673,0.00389227,0.00030877,0.0026938,-0.00137263,0,0,0,0,1,2
1,0.4,36,0.07639775,-1.00321615,0.02113846,0.66277581,1.85099423,-0.93818474,-42.06372452,3.21543407,-110.2016907,-2.92456245,-5.13767242,6.47737217,0.99713939,0.0229212,0.04617371,-0.05527855,-0.00573842,-0.00098977,0.00682303,0,0,0,0,1,2
2,0.4,38,0.084562,-0.99244303,-0.01590527,-0.30925497,0.76513606,0.46130356,-49.75153351,-17.07103157,-86.61209869,-1.00345945,2.21361113,13.0371418,0.99329245,0.01089128,-0.01819666,-0.11366773,-0.003401,0.00106316,-0.00395721,0,0,0,0,1,2
4,0.4,40,-0.07622951,-0.99567199,-0.05272917,0.80805379,0.0856345,0.18227775,-28.85121346,18.41566849,-100.2046204,0.21869461,-0.31913704,-0.44509423,0.99998689,-0.00189763,0.00279238,0.00387883,0.00124475,0.0036335,-0.00005108,0,0,0,0,1,2
1,0.41,37,0.06898221,-1.00710428,0.0188961,0.61490971,1.38125408,-0.92047751,-42.06372452,1.43232965,-109.9678421,-2.91734409,-5.12882948,6.49027348,0.99713796,0.02285764,0.04609587,-0.05539588,0.00232769,-0.00364976,0.00929063,0,0,0,0,1,2
2,0.41,39,0.08546875,-0.99452287,-0.01630487,-0.29206017,0.68103719,0.35526201,-50.5407753,-16.01870728,-86.31978607,-1.00580823,2.21017694,13.04412651,0.99328601,0.01090935,-0.0181639,-0.11372846,-0.00428704,0.00070544,-0.00184256,0,0,0,0,1,2
4,0.41,41,-0.07656252,-0.99700379,-0.05269728,0.50691366,0.17210776,0.12996285,-28.29582024,18.47413063,-99.94153595,0.22362266,-0.32034099,-0.44295543,0.99998677,-0.00194065,0.00280301,0.00386003,0.00146134,0.00364777,0.00129685,0,0,0,0,1,2
1,0.42,38,0.06712849,-1.00862181,0.0215336,0.50254875,0.31990364,-0.83751792,-41.97602844,2.92312193,-109.9678421,-2.87567806,-5.1787405,6.48721933,0.99712873,0.0224712,0.04650937,-0.05537405,0.00432194,-0.00138941,0.01067608,0,0,0,0,1,2
2,0.42,40,0.08491407,-0.99543065,-0.01680203,-0.29314888,0.49443024,0.21325457,-50.77462769,-16.07716942,-86.31978607,-1.00833178,2.20813179,13.04923344,0.99328101,0.01093001,-0.01814318,-0.113773,-0.00373565,0.00024227,-0.00096062,0,0,0,0,1,2
4,0.42,42,-0.07274923,-0.99721324,-0.05669828,0.34856096,-0.10537141,0.12505808,-28.67582512,18.24028015,-99.82460785,0.22718094,-0.32164291,-0.44369197,0.99998671,-0.00197164,0.00281451,0.00386634,-0.00239855,-0.00040951,0.00148172,0,0,0,0,1,2
1,0.43,39,0.06782828,-1.0065552,0.02608308,0.15387155,-0.4661901,-0.74265641,-42.26834106,1.75387311,-109.8216858,-2.8743906,-5.17122078,6.48251534,0.99713415,0.02246569,0.0464424,-0.05533545,0.00273898,0.00277209,0.00910814,0,0,0,0,1,2
2,0.43,41,0.08087264,-0.99407166,-0.02046438,-0.18465178,0.62759048,0.38842952,-50.77462769,-16.07716942,-86.31978607,-1.05034602,2.19589305,13.05329418,0.99327505,0.01128271,-0.01799497,-0.11381412,0.00015165,-0.00320721,-0.00249285,0,0,0,0,1,2
4,0.43,43,-0.06991214,-0.99787891,-0.05634049,0.38429916,-0.41699761,0.1031952,-28.9096756,17.88950539,-100.3800049,0.23131876,-0.32291371,-0.44751403,0.99998641,-0.00200761,0.0028258,0.00389957,-0.00529595,-0.0000719,0.00192642,0,0,0,0,1,2
1,0.44,40,0.07287316,-1.00277078,0.02358366,0.11611279,-0.34505838,-0.66872793,-42.20988083,2.98158431,-109.8509216,-2.87340498,-5.16446495,6.47905684,0.99713862,0.0224619,0.04638248,-0.05530738,-0.0027527,0.00054617,0.00599318,0,0,0,0,1,2
2,0.44,42,0.07848789,-0.99540472,-0.02047632,-0.29252607,0.5438906,0.31869587,-50.74539566,-16.22332573,-86.31978607,-1.05282271,2.1928041,13.05891323,0.9932698,0.011302,-0.01796518,-0.11386302,0.00242131,-0.00264978,-0.00125916,0,0,0,0,1,2
4,0.44,44,-0.06947155,-0.9982096,-0.05428391,0.4209522,-0.46959379,0.18950914,-28.646595,17.94796753,-99.97076416,0.27000165,-0.24420832,-0.45922634,0.99998695,-0.00234764,0.00214054,0.00400245,-0.00542501,0.00176636,0.0021008,0,0,0,0,1,2
1,0.45,41,0.07767449,-1.00084591,0.02054141,0.23029216,0.55989981,-0.72284859,-42.20988083,2.98158431,-109.8509216,-2.87064648,-5.15738821,6.48440075,0.99713922,0.02243929,0.04632062,-0.0553567,-0.00770897,-0.00238654,0.00462941,0,0,0,0,1,2
2,0.45,43,0.08055145,-0.99754423,-0.02142684,-0.36461756,0.45986241,0.24857268,-50.74539566,-16.83718109,-85.85208893,-1.05609536,2.19040489,13.06371307,0.99326515,0.01132874,-0.01794066,-0.113905,0.00040483,-0.00354932,0.00096529,0,0,0,0,1,2
1,0.46,42,0.08031829,-0.99904436,0.01745694,0.58052671,1.17214811,-0.70301867,-42.53142166,2.86465931,-109.7339935,-2.86394358,-5.15068054,6.49524403,0.99713784,0.02237996,0.04626114,-0.05545537,-0.01052423,-0.00541943,0.00303938,0,0,0,0,1,2
2,0.46,44,0.08422537,-0.9977234,-0.01883609,-0.13282029,-0.11297259,0.32671186,-50.95001221,-15.78485775,-85.96901703,-1.05749166,2.18711996,13.0626955,0.99326652,0.01133743,-0.0179109,-0.11389619,-0.00330989,-0.00092745,0.00130128,0,0,0,0,1,2
1,0.47,43,0.07910229,-1.00252712,0.02037278,0.8496455,1.12314725,-0.68956113,-41.94680023,2.04618526,-109.4124527,-2.87449241,-5.03895092,6.50582123,0.99717247,0.02252382,0.04529619,-0.05557,-0.00816868,-0.00282996,0.00643059,0,0,0,0,1,2
2,0.47,45,0.08601758,-0.99291795,-0.01749451,-0.20378394,0.1286286,0.34780127,-50.5407753,-16.19409561,-86.02747345,-1.05942953,2.1836679,13.06413078,0.99326545,0.01135103,-0.0178789,-0.11390871,-0.00536241,0.00045039,-0.003424,0,0,0,0,1,2
1,0.48,44,0.07803847,-1.00391281,0.02074225,0.67109239,1.06890512,-0.65560246,-41.74217987,2.86465931,-109.6463013,-2.86695123,-5.03270054,6.51548672,0.99717164,0.02245753,0.04524004,-0.05565859,-0.00540633,-0.00243601,0.00752614,0,0,0,0,1,2
2,0.48,46,0.08429706,-0.99367738,-0.01937956,-0.38276011,0.06094678,0.36641058,-50.5407753,-16.19409561,-86.02747345,-1.08310854,2.21423841,13.06148148,0.99326038,0.01158615,-0.01812062,-0.11389136,-0.00352987,-0.00128768,-0.00273386,0,0,0,0,1,2
1,0.49,45,0.0710488,-1.00581181,0.0186513,0.78234863,0.8096382,-0.75246006,-41.62525558,2.83542824,-110.0263062,-2.85845661,-5.02543068,6.52242947,0.99717259,0.02238455,0.04517402,-0.05572409,0.00188658,-0.00480138,0.00811755,0,0,0,0,1,2
2,0.49,47,0.0809373,-0.99778998,-0.01718786,-0.31136751,-0.06074492,0.38168457,-50.42385101,-16.92487526,-86.49517822,-1.08625388,2.21041274,13.06107712,0.99326122,0.01160956,-0.01808438,-0.11388813,0.00038752,0.00120656,0.00125291,0,0,0,0,1,2
4,0.49,45,-0.07529427,-0.99703753,-0.05445451,-0.16360484,-0.55619663,0.04632244,-29.08506203,17.48026848,-99.76615143,0.27958801,-0.27019903,-0.47875971,0.99998558,-0.00242998,0.00236809,0.00417218,0.00129111,0.00093541,0.00134661,0,0,0,0,1,2
1,0.5,46,0.06807095,-1.00547993,0.01882385,0.5390178,0.21596964,-0.72052354,-41.62525558,2.83542824,-110.0263062,-2.85283709,-5.01832151,6.52387047,0.99717563,0.02233867,0.04510971,-0.05574054,0.00490241,-0.00472491,0.0073126,0,0,0,0,1,2
2,0.5,48,0.07869421,-0.99868768,-0.01343436,-0.22294141,-0.42241976,0.32403702,-50.6577034,-16.07716942,-86.758255,-1.08881748,2.20709801,13.05700684,0.99326551,0.01162786,-0.01805351,-0.11385302,0.00260608,0.00502073,0.00205458,0,0,0,0,1,2
4,0.5,46,-0.07367194,-0.99692988,-0.05330824,-0.12808743,-0.76387954,0.02600978,-28.9096756,18.24028015,-99.8830719,0.27888697,-0.27088115,-0.48644036,0.99998522,-0.00242368,0.00237418,0.0042392,-0.00056101,0.00204066,0.00105916,0,0,0,0,1,2
1,0.51,47,0.07144446,-1.00465453,0.0226105,0.48910972,-0.08000474,-0.73101544,-42.03449249,2.28003502,-109.8801498,-2.84792018,-5.01103592,6.52245951,0.99717993,0.02230012,0.04504365,-0.05573193,0.00161074,-0.00097372,0.00729255,0,0,0,0,1,2
2,0.51,49,0.07679839,-0.99755383,-0.01498607,-0.40154645,-0.19594511,0.29367581,-50.6577034,-16.22332573,-86.72902679,-1.09297884,2.20412779,13.05527592,0.99326742,0.01166071,-0.0180238,-0.11383851,0.00439608,0.00353408,0.00083917,0,0,0,0,1,2
4,0.51,47,-0.07121208,-0.9966414,-0.04986454,0.26230767,-0.9545455,0.12935328,-28.9096756,18.24028015,-99.8830719,0.28218374,-0.27271023,-0.4956941,0.99998486,-0.00245219,0.00239047,0.00431985,-0.00300351,0.00542384,0.00039429,0,0,0,0,1,2
1,0.52,48,0.07730872,-1.00587249,0.02065044,0.5588879,-0.02724021,-0.52202708,-41.88833618,2.36772871,-110.5232391,-2.8712635,-4.93488693,6.52380085,0.99720252,0.02254121,0.04439269,-0.05575267,-0.00359529,-0.00297937,0.00924936,0,0,0,0,1,2
2,0.52,50,0.07741925,-0.99406666,-0.0151765,-0.47307062,0.06551936,0.19266246,-50.74539566,-16.10640144,-86.46594238,-1.09765768,2.20221949,13.0561657,0.99326634,0.01169952,-0.01800252,-0.11384682,0.00358727,0.00341819,-0.0026187,0,0,0,0,1,2
4,0.52,48,-0.07094467,-0.9963249,-0.05083342,0.28023592,-0.8508454,0.16575626,-28.55890083,17.83104324,-99.97076416,0.28557429,-0.27484715,-0.50389028,0.99998438,-0.00248152,0.00240942,0.00439125,-0.00328921,0.00437313,0.00011939,0,0,0,0,1,2
1,0.53,49,0.07904147,-1.00139856,0.01711445,0.48561397,0.09352142,-0.49973771,-41.94680023,2.86465931,-110.1724625,-2.8662746,-4.92995024,6.52406073,0.99720514,0.02250019,0.04434736,-0.05575804,-0.00504613,-0.00589304,0.0047919,0,0,0,0,1,2
2,0.53,51,0.07757612,-0.99578148,-0.01944807,-0.40080625,0.27058253,0.24673241,-50.74539566,-16.10640144,-86.46594238,-1.08739579,2.16094208,13.06201744,0.99326873,0.01157059,-0.01765432,-0.11389332,0.00329897,-0.00084723,-0.00090857,0,0,0,0,1,2
4,0.53,49,-0.07332867,-0.99513733,-0.05167656,-0.0381621,-0.60890412,0.16783169,-28.50043869,18.32797432,-99.91230774,0.28565627,-0.27685127,-0.50988907,0.99998415,-0.00248204,0.00242704,0.00444356,-0.00087053,0.00343033,-0.00084652,0,0,0,0,1,2
1,0.54,50,0.07603379,-0.99928874,0.01900965,0.54338479,-0.18374568,-0.59685075,-41.88833618,2.86465931,-110.84478,-2.86092925,-4.92398548,6.52151012,0.99720961,0.02245767,0.04429236,-0.05573934,-0.00229187,-0.00393982,0.00235941,0,0,0,0,1,2
2,0.54,52,0.07940911,-0.99622995,-0.01873429,-0.33016089,-0.03921679,0.18988787,-50.57000732,-16.48640823,-86.49517822,-1.09071946,2.15904045,13.06180191,0.99326903,0.01159748,-0.01763456,-0.11389185,0.00093927,-0.00025094,-0.00040478,0,0,0,0,1,2
4,0.54,50,-0.07267278,-0.99368817,-0.05355464,-0.19663829,-0.71328247,0.18289417,-28.44197655,18.26951218,-99.97076416,0.30791369,-0.25022376,-0.5191673,0.99998379,-0.00267712,0.00219576,0.00452468,-0.00134082,0.0013847,-0.00222218,0,0,0,0,1,2
1,0.55,51,0.07496908,-1.0067718,0.0247192,0.62237495,-0.75623089,-0.61847579,-41.88833618,2.86465931,-110.84478,-2.85518026,-4.91767168,6.51315975,0.99721706,0.02241406,0.04423299,-0.0556704,0.0001258,0.00111586,0.00995375,0,0,0,0,1,2
2,0.55,53,0.07977413,-0.99622846,-0.01897814,-0.16872193,-0.33183324,-0.0298092,-50.77462769,-16.07716942,-86.84594727,-1.09265876,2.15927768,13.05855274,0.99327195,0.01161403,-0.01763501,-0.11386399,0.00056459,-0.0004525,-0.00039045,0,0,0,0,1,2
4,0.55,51,-0.0721828,-0.99305934,-0.05304179,-0.23203221,-0.67870063,0.18323958,-28.09120178,17.83104324,-99.79537964,0.30609158,-0.25242287,-0.5259825,0.99998355,-0.002661,0.00221503,0.00458413,-0.00144579,0.0015744,-0.00291335,0,0,0,0,1,2
1,0.56,52,0.0698337,-1.00675428,0.02527121,0.71095049,-0.77275091,-0.41217464,-42.03449249,1.63694823,-110.2893906,-2.84859061,-4.91342592,6.50446033,0.99722415,0.02236221,0.04419115,-0.05559824,0.00528092,0.00156039,0.00914757,0,0,0,0,1,2
2,0.56,54,0.07960571,-0.99429393,-0.01724965,-0.16822706,-0.51744121,0.00718655,-50.42385101,-18.09412384,-85.88131714,-1.09477139,2.15911078,13.0534544,0.99327683,0.01163139,-0.01763199,-0.11382011,0.0006504,0.00131267,-0.00232881,0,0,0,0,1,2
4,0.56,52,-0.07145543,-0.99350196,-0.05373876,-0.320517,-0.59224594,0.18410318,-28.76351929,18.09412384,-99.61999512,0.30332699,-0.25458464,-0.53199607,0.99998325,-0.00263667,0.00223392,0.00463662,-0.00224412,0.0009485,-0.00248121,0,0,0,0,1,2
1,0.57,53,0.06937845,-1.0049746,0.02687063,0.69043171,-0.54705811,-0.45562476,-42.32680511,2.48465347,-109.3247604,-2.80351615,-4.96759653,6.49495697,0.99721777,0.02194637,0.04463882,-0.05552024,0.00528744,0.00299886,0.00743899,0,0,0,0,1,2
2,0.57,55,0.07704614,-0.99385875,-0.01674831,-0.11437992,-0.39689875,-0.00945104,-50.30692673,-16.07716942,-86.17362976,-1.0962199,2.159132,13.04953098,0.99328059,0.01164336,-0.01763113,-0.11378632,0.00318475,0.00184152,-0.00287245,0,0,0,0,1,2
4,0.57,53,-0.07210502,-0.99366331,-0.05525,-0.44335487,-0.73134416,0.21620375,-28.76351929,18.09412384,-99.61999512,0.2994495,-0.25714037,-0.53948355,0.99998307,-0.00260259,0.00225624,0.00470197,-0.00165647,-0.00048336,-0.00218472,0,0,0,0,1,2
1,0.58,54,0.06904403,-1.00414479,0.02315206,0.63138652,-0.14812954,-0.4059287,-42.20988083,2.3384974,-109.5878372,-2.79727197,-4.96355295,6.49257946,0.99722165,0.02189499,0.04460016,-0.05550293,0.00474958,-0.00126429,0.00633138,0,0,0,0,1,2
2,0.58,56,0.08063976,-0.99577212,-0.01697338,0.10004473,-0.60646462,0.02072331,-50.30692673,-16.07716942,-86.17362976,-1.08818781,2.17085433,13.04328823,0.9932856,0.01158438,-0.01774135,-0.11373173,-0.00026784,0.00158782,-0.00080571,0,0,0,0,1,2
4,0.58,54,-0.07249221,-0.99540174,-0.05427984,-0.3732636,-0.8174175,0.16310386,-28.73428726,18.44489861,-99.73691559,0.29633081,-0.25921774,-0.54779446,0.99998271,-0.00257512,0.00227443,0.00477451,-0.00142331,0.00065395,-0.00048534,0,0,0,0,1,2
1,0.59,55,0.06798006,-1.00476515,0.02001582,0.43461767,-0.13299142,-0.47307354,-42.15141678,2.80619693,-109.3832169,-2.79298472,-4.95882607,6.49068069,0.99722511,0.0218608,0.04455658,-0.05548918,0.00594406,-0.00452656,0.00653661,0,0,0,0,1,2
2,0.59,57,0.08327559,-0.994461,-0.01550755,-0.07803655,-0.41709036,0.11226206,-50.36539078,-16.54487038,-86.05670929,-1.08930838,2.1696558,13.03917122,0.99328971,0.01159227,-0.01773027,-0.11369613,-0.00281825,0.00296371,-0.00199862,0,0,0,0,1,2
4,0.59,55,-0.07232769,-0.99705577,-0.05279656,0.12193061,-0.92071384,0.19871901,-27.8573513,17.12949371,-100.0876923,0.33124077,-0.2456243,-0.55717492,0.99998176,-0.00288015,0.00215749,0.00485602,-0.00166665,0.00208292,0.00106177,0,0,0,0,1,2
1,0.6,56,0.07156554,-1.00657821,0.02225038,0.06040594,-0.31119418,-0.39028871,-42.15141678,2.80619693,-109.3832169,-2.79258037,-4.9548521,6.48759174,0.99722809,0.02186047,0.04452122,-0.05546337,0.00278824,-0.0024629,0.00904461,0,0,0,0,1,2
2,0.6,58,0.08301443,-0.99360585,-0.01961621,0.15412481,-0.41734892,0.0223688,-50.13153839,-15.78485775,-86.40748596,-1.0880996,2.16935325,13.0349369,0.99329418,0.01158084,-0.01772927,-0.11365923,-0.00260781,-0.00115026,-0.00286687,0,0,0,0,1,2
4,0.6,56,-0.07191274,-0.99851251,-0.05025506,-0.01886174,-0.92125392,0.23280087,-28.85121346,18.24028015,-100.496933,0.33171231,-0.2484559,-0.5662412,0.99998128,-0.00288398,0.00218245,0.00493506,-0.00200821,0.00425874,0.00233244,0,0,0,0,1,2
1,0.61,57,0.07345002,-1.00439978,0.02213852,-0.11967476,-0.20899619,-0.43706432,-42.47296143,2.04618526,-110.0847702,-2.79389191,-4.95042181,6.48581505,0.99723029,0.0218748,0.04448297,-0.05544844,0.00065331,-0.00238997,0.00718599,0,0,0,0,1,2
2,0.61,59,0.0810671,-0.99521863,-0.01733013,0.38698277,-0.33367285,0.03832227,-50.83308792,-15.28792763,-86.2028656,-1.08451056,2.16890693,13.03144264,0.99329799,0.01154875,-0.01772931,-0.11362836,-0.00059823,0.00108938,-0.0013387,0,0,0,0,1,2
4,0.61,57,-0.07325522,-0.99986804,-0.05082618,-0.33806419,-0.99031442,0.12592441,-28.82198143,18.18181801,-100.1461563,0.32907325,-0.25024813,-0.57627422,0.99998099,-0.00286068,0.00219823,0.00502262,-0.00080646,0.00379135,0.00380976,0,0,0,0,1,2
1,0.62,58,0.07366308,-1.00261271,0.02155852,0.23295209,0.19472362,-0.3730163,-42.26834106,1.92926037,-110.5232391,-2.83254743,-4.95186138,6.49219561,0.99721932,0.022208,0.04451544,-0.05548862,0.00020362,-0.00268287,0.00542174,0,0,0,0,1,2
2,0.62,60,0.08234443,-0.99607778,-0.01765143,0.38657686,-0.5232811,0.03609244,-50.45308304,-15.84332085,-86.31978607,-1.0810734,2.16844678,13.02605343,0.99330378,0.01151766,-0.01772928,-0.11358108,-0.00184635,0.00070691,-0.00042743,0,0,0,0,1,2
4,0.62,58,-0.07262108,-0.99798501,-0.05128263,-0.26821741,-1.0762496,0.05544096,-28.82198143,18.18181801,-100.1461563,0.32720202,-0.25138396,-0.58715069,0.99998045,-0.00284409,0.00220833,0.00511754,-0.00133245,0.00326338,0.00191807,0,0,0,0,1,2
1,0.63,59,0.07290371,-1.00056159,0.01985601,0.5564208,0.111635,-0.3958196,-41.80064392,2.42619109,-110.1139984,-2.82686591,-4.94797611,6.49250793,0.99722159,0.02216039,0.04447893,-0.05549446,0.00060598,-0.00376824,0.00318222,0,0,0,0,1,2
2,0.63,61,0.07976705,-0.99738133,-0.01966306,0.4943774,-0.47405556,0.10542066,-50.45308304,-15.84332085,-86.31978607,-1.06992757,2.16798401,13.02151108,0.9933095,0.01141989,-0.01773676,-0.11353995,0.00077042,-0.00141385,0.00076125,0,0,0,0,1,2
4,0.63,59,-0.07204177,-0.99729133,-0.05107253,-0.53468382,-1.14507318,-0.06856205,-29.31891251,18.18181801,-100.0584641,0.32272413,-0.25131503,-0.59896386,0.99998003,-0.00280479,0.00220782,0.00522071,-0.00186746,0.00348638,0.00117418,0,0,0,0,1,2
1,0.64,60,0.07317665,-1.00429523,0.02316942,0.8980757,-0.02342868,-0.35147655,-41.7714119,1.72464192,-109.8801498,-2.81785369,-4.94452572,6.49092245,0.9972254,0.02208431,0.04444424,-0.05548497,0.00103207,-0.00087707,0.00712715,0,0,0,0,1,2
2,0.64,62,0.08129342,-0.99739134,-0.01954761,0.40455362,-0.52382052,0.05336984,-50.45308304,-15.63870239,-86.31978607,-1.06631827,2.16735244,13.01610661,0.99331528,0.01138714,-0.0177354,-0.1134925,-0.0007532,-0.00144411,0.00083377,0,0,0,0,1,2
4,0.64,60,-0.07193719,-0.99623382,-0.04883476,-0.80107671,-1.24854457,-0.19308183,-28.76351929,15.20023346,-100.4384689,0.38229397,-0.22200529,-0.61233032,0.99997836,-0.00332573,0.00195515,0.00533706,-0.00175326,0.00547474,-0.00002025,0,0,0,0,1,2
1,0.65,61,0.07712714,-1.00333011,0.02244383,0.59231597,0.05983708,-0.29420441,-41.7714119,1.72464192,-109.8801498,-2.81185627,-4.9416461,6.49064016,0.99722773,0.02203367,0.04441623,-0.05548552,-0.0029753,-0.00166152,0.00674156,0,0,0,0,1,2
2,0.65,63,0.07825384,-0.99580401,-0.01811704,0.28596696,-0.4780395,0.08113096,-49.80999756,-17.21718788,-86.46594238,-1.06384087,2.16645336,13.01121902,0.99332058,0.01136402,-0.01773055,-0.11344971,0.00220066,-0.00006502,-0.00088282,0,0,0,0,1,2
4,0.65,61,-0.07148546,-0.99694538,-0.04980326,-0.71250784,-1.14471245,-0.15633628,-28.67582512,18.32797432,-100.2630768,0.37604356,-0.22105047,-0.62431586,0.99997801,-0.00327103,0.00194687,0.00544178,-0.00187131,0.0037968,0.00071827,0,0,0,0,1,2
1,0.66,62,0.07633783,-0.99922532,0.02067931,0.43352181,-0.11576177,-0.31674764,-42.29757309,2.39696002,-109.7047653,-2.80756855,-4.93848562,6.48887444,0.99723053,0.02199863,0.0443863,-0.05547255,-0.00281809,-0.00319596,0.00243977,0,0,0,0,1,2
2,0.66,64,0.0772105,-0.99726409,-0.01831784,-0.01178742,-0.30770594,0.00742577,-50.45308304,-16.28178787,-86.11517334,-1.06420827,2.16632295,13.00815392,0.9933235,0.0113666,-0.01772936,-0.11342317,0.00329027,-0.00028185,0.00053039,0,0,0,0,1,2
4,0.66,62,-0.07243008,-0.99691677,-0.04980137,-0.64260048,-1.14416635,-0.20814431,-28.67582512,17.65565681,-100.1461563,0.37047893,-0.21958761,-0.63627726,0.99997759,-0.00322234,0.00193417,0.0055463,-0.00090193,0.00390269,0.0007544,0,0,0,0,1,2
1,0.67,63,0.07703653,-1.00120187,0.02338298,0.59950036,-0.51351613,-0.28072014,-41.44986725,2.10464764,-109.3247604,-2.81558609,-4.87437391,6.48477745,0.99725419,0.02210219,0.04383153,-0.05544886,-0.0028413,-0.00067712,0.00466178,0,0,0,0,1,2
2,0.67,65,0.0788756,-0.99553239,-0.01593236,0.14880835,-0.30730772,-0.08168836,-50.45308304,-16.28178787,-86.11517334,-1.06298685,2.16708302,13.00500107,0.99332666,0.01135628,-0.01773746,-0.11339571,0.00156654,0.00209484,-0.00112694,0,0,0,0,1,2
4,0.67,63,-0.07632705,-0.99816656,-0.04958082,-0.53666323,-1.24777377,-0.22656414,-28.61736298,17.91873741,-100.0876923,0.36606249,-0.21799205,-0.64921391,0.99997711,-0.00318366,0.0019204,0.00565931,0.00292692,0.00428074,0.00225573,0,0,0,0,1,2
1,0.68,64,0.07618472,-1.00513637,0.02232288,0.66880929,-0.35636762,-0.2235792,-41.56679153,1.92926037,-109.3832169,-2.80912805,-4.87210608,6.48023272,0.99725837,0.02204886,0.0438078,-0.05541231,-0.00054676,-0.00194847,0.00825554,0,0,0,0,1,2
2,0.68,66,0.08023162,-0.9955793,-0.01314905,0.20256789,-0.30817544,-0.06480055,-49.80999756,-16.54487038,-86.96287537,-1.01524198,2.17533803,13.00428486,0.9933306,0.01095044,-0.01785634,-0.11338258,0.00025677,0.0046516,-0.00102322,0,0,0,0,1,2
4,0.68,64,-0.07787797,-0.99862814,-0.0492143,-0.53661585,-1.04016328,-0.18869665,-28.61736298,17.91873741,-100.0876923,0.36149043,-0.21666446,-0.66004753,0.99997669,-0.00314364,0.00190888,0.00575396,0.00446728,0.00475583,0.00280035,0,0,0,0,1,2
1,0.69,65,0.07609291,-1.00583959,0.01691643,0.41663212,-0.2550855,-0.18335007,-42.38526535,2.51388478,-109.4416809,-2.80512547,-4.87024307,6.47708321,0.99726135,0.02201616,0.04378905,-0.05538686,-0.00037237,-0.00747592,0.00853826,0,0,0,0,1,2
2,0.69,67,0.08015989,-0.99449676,-0.01610286,0.29159808,-0.3071205,-0.15313551,-50.71616364,-16.25255775,-86.96287537,-1.01258695,2.17681313,13.00106335,0.99333382,0.01092838,-0.01787207,-0.11335433,0.00040265,0.00105816,-0.00211638,0,0,0,0,1,2
4,0.69,65,-0.07689638,-0.99698186,-0.04785609,-0.66027385,-1.0230701,-0.1890378,-29.11429405,18.32797432,-100,0.41878223,-0.24813177,-0.66321963,0.99997437,-0.00364195,0.00218646,0.00577968,0.0034859,0.00583242,0.00101304,0,0,0,0,1,2
1,0.7,66,0.07533339,-1.00555372,0.01806886,0.3117407,-0.43002537,-0.24087457,-42.09295654,2.51388478,-109.8216858,-2.80229521,-4.86775398,6.47238016,0.9972651,0.02199458,0.04376511,-0.0553476,0.00038283,-0.00636084,0.00821278,0,0,0,0,1,2
2,0.7,68,0.07573535,-0.99703991,-0.02061288,0.27375516,-0.32456863,-0.13567123,-50.51154709,-17.74334908,-86.46594238,-1.01012647,2.17811322,12.99768066,0.99333721,0.0109078,-0.01788609,-0.1133247,0.0049575,-0.00349682,0.0002332,0,0,0,0,1,2
4,0.7,66,-0.07687181,-0.99594414,-0.04852246,-0.71217924,-0.9545638,-0.10134359,-29.02659988,18.29874229,-100.2046204,0.41239667,-0.24762286,-0.67328537,0.99997401,-0.00358606,0.00218201,0.00586766,0.00311925,0.00438074,0.00002445,0,0,0,0,1,2
1,0.71,67,0.07396676,-1.00433326,0.02362733,0.31011617,-0.27360114,-0.30431044,-42.09295654,2.48465347,-109.8216858,-2.79936767,-4.8646698,6.46924639,0.99726826,0.02197184,0.04373626,-0.05532217,0.00165342,-0.00077905,0.007186,0,0,0,0,1,2
2,0.71,69,0.07508153,-0.99591446,-0.01774319,0.32788372,-0.15306517,-0.11675626,-50.71616364,-16.48640823,-86.64133453,-1.00697565,2.17925191,12.99599266,0.993339,0.01088135,-0.01789924,-0.11330964,0.00558095,-0.00068095,-0.00091805,0,0,0,0,1,2
4,0.71,67,-0.07639764,-0.99552274,-0.05045994,-0.72932678,-0.85106772,-0.04772842,-29.05583191,18.0356617,-100.1169205,0.40575397,-0.24759269,-0.68228346,0.99997377,-0.00352793,0.00218168,0.00594631,0.00266754,0.00253227,-0.0003123,0,0,0,0,1,2
1,0.72,68,0.0738149,-1.00415695,0.02405352,0.39672461,-0.04670228,-0.29663387,-42.09295654,2.16311026,-109.8509216,-2.79958057,-4.87575293,6.46834087,0.99726462,0.02196849,0.04383263,-0.05531161,0.00177107,-0.000382,0.00701776,0,0,0,0,1,2
2,0.72,70,0.0761179,-0.9959166,-0.0179896,0.36426839,0.08755093,-0.09683569,-50.71616364,-16.48640823,-86.64133453,-1.00327468,2.18023133,12.9966898,0.99333847,0.01085034,-0.01791132,-0.11331517,0.00456485,-0.00098711,-0.00087207,0,0,0,0,1,2
4,0.72,68,-0.07556657,-0.99577558,-0.05388007,-0.81581903,-0.7830416,0.09194512,-29.11429405,17.48026848,-100.2923126,0.39819387,-0.24892241,-0.69060796,0.99997354,-0.00346173,0.00219314,0.00601905,0.00179472,-0.00073835,0.00008655,0,0,0,0,1,2
1,0.73,69,0.07238634,-1.00559056,0.0236324,0.69497156,0.40851071,-0.23028216,-42.29757309,2.89389062,-110.0555344,-2.79230428,-4.8736043,6.4713316,0.99726546,0.0219051,0.043811,-0.05534093,0.00326278,-0.00095962,0.00818146,0,0,0,0,1,2
2,0.73,71,0.08336629,-0.99622214,-0.02081034,0.29168567,-0.18571036,-0.18666093,-50.59923935,-16.22332573,-86.34902191,-1.02445364,2.24148941,12.98897266,0.99333316,0.01109308,-0.01842215,-0.11325514,-0.00237953,-0.00375966,-0.0002465,0,0,0,0,1,2
4,0.73,69,-0.07381594,-0.99652576,-0.05194684,-0.7638768,-0.86887169,0.00399254,-29.11429405,17.48026848,-100.2923126,0.3912217,-0.24941821,-0.69978476,0.99997324,-0.00340068,0.00219738,0.00609925,-0.0000114,0.00137279,0.00059496,0,0,0,0,1,2
1,0.74,70,0.0726902,-1.00600374,0.02450712,0.5535363,0.26785159,-0.23437549,-42.23910904,2.19234133,-109.6755295,-2.78654695,-4.87137127,6.47315884,0.99726635,0.02185541,0.04378913,-0.05535954,0.00307842,-0.00023601,0.00869024,0,0,0,0,1,2
2,0.74,72,0.08605559,-0.99995548,-0.01748316,0.2726202,-0.37177795,-0.34594584,-50.920784,-16.0479393,-86.26132965,-1.02202857,2.24488282,12.98508072,0.99333674,0.01107478,-0.01845435,-0.11322121,-0.0040831,-0.00016656,0.00363667,0,0,0,0,1,2
4,0.74,70,-0.07210429,-0.99662471,-0.05116364,-0.74604595,-0.83432913,0.02197849,-28.20812607,17.12949371,-100.3215408,0.41362116,-0.2210446,-0.71226496,0.9999724,-0.00359745,0.00195136,0.00620863,-0.00160546,0.0021384,0.00052727,0,0,0,0,1,2
1,0.75,71,0.07305553,-1.00325942,0.02527524,0.29169881,-0.25648472,-0.25164714,-41.7714119,3.30312777,-110.1139984,-2.78380346,-4.86881399,6.47021341,0.99726921,0.02183394,0.04376499,-0.05533555,0.00233382,0.00066681,0.00609451,0,0,0,0,1,2
2,0.75,73,0.08528271,-0.99679923,-0.01536957,-0.03721248,-0.07249212,-0.42892501,-50.97924423,-15.87255192,-86.05670929,-1.0224508,2.24916029,12.98429489,0.99333674,0.01108253,-0.01849109,-0.11321473,-0.0033737,0.00193118,0.00045391,0,0,0,0,1,2
4,0.75,71,-0.07064724,-0.9962486,-0.0519232,-0.99377704,-0.8345145,-0.01398772,-28.9096756,18.32797432,-100.496933,0.40431842,-0.22134604,-0.72127759,0.99997222,-0.0035161,0.00195376,0.00628743,-0.0026658,0.00112441,0.00009729,0,0,0,0,1,2
1,0.76,72,0.07168761,-1.00463426,0.02321823,0.31301501,-0.55168694,-0.19345757,-41.7714119,3.30312777,-110.1139984,-2.78107548,-4.86676788,6.46429539,0.99727333,0.02181349,0.04374474,-0.05528557,0.00392029,-0.00153047,0.00707732,0,0,0,0,1,2
2,0.76,74,0.07819839,-0.99588209,-0.01690541,-0.00062776,-0.05323474,-0.33160052,-50.86231995,-16.10640144,-86.43671417,-1.02251017,2.2524662,12.98370266,0.99333674,0.0110862,-0.01851975,-0.1132098,0.00373434,0.00040798,-0.00076311,0,0,0,0,1,2
4,0.76,72,-0.07232942,-0.99669027,-0.05297834,-0.97722882,-0.88576287,-0.1015949,-28.9096756,17.80181122,-100.847702,0.39522731,-0.22079553,-0.73083431,0.99997199,-0.00343664,0.00194875,0.00637099,-0.00101747,0.00026079,0.00071623,0,0,0,0,1,2
1,0.77,73,0.07004663,-1.00433111,0.02157777,0.13110825,-0.34532848,-0.14990227,-42.00526047,3.04004669,-109.7924576,-2.81335974,-4.90500021,6.46288157,0.99725413,0.02207586,0.04409273,-0.05525197,0.00532784,-0.00302732,0.00641857,0,0,0,0,1,2
2,0.77,75,0.07693405,-0.99419671,-0.01444914,0.01826477,0.01179788,-0.15626238,-50.86231995,-16.10640144,-86.43671417,-1.0223192,2.25402975,12.98378849,0.99333626,0.0110861,-0.01853348,-0.11321059,0.00496113,0.00286582,-0.00249837,0,0,0,0,1,2
4,0.77,73,-0.07166164,-0.99493468,-0.05298097,-1.01411319,-0.95415783,-0.22448447,-28.76351929,17.83104324,-99.94153595,0.38581672,-0.21906081,-0.74116486,0.99997169,-0.00335444,0.00193339,0.00646135,-0.00153823,0.00031362,-0.00107939,0,0,0,0,1,2
1,0.78,74,0.07734013,-1.00216913,0.02264316,-0.13983661,-0.19216721,-0.07302877,-42.23910904,2.952353,-109.6170731,-2.8148849,-4.90421391,6.46121597,0.99725491,0.02209016,0.0440863,-0.05523707,-0.00270578,-0.00136867,0.00559003,0,0,0,0,1,2
2,0.78,76,0.08071156,-0.99518645,-0.01514556,-0.01722061,0.27180848,-0.20524873,-50.62847137,-16.3110199,-86.14440155,-1.03939927,2.2640295,12.98441315,0.99333227,0.01124411,-0.01860323,-0.11321937,0.00129664,0.00223474,-0.00134455,0,0,0,0,1,2
4,0.78,74,-0.07383352,-0.99552333,-0.05439806,-1.22585106,-1.04117286,-0.22680412,-28.76351929,17.91873741,-100.496933,0.37437925,-0.21734411,-0.75250632,0.99997139,-0.00325454,0.00191809,0.00656056,0.00061164,-0.00088141,-0.00025857,0,0,0,0,1,2
1,0.79,75,0.07521272,-1.0038693,0.02342757,0.06803856,0.36632082,-0.08869015,-42.29757309,1.46156096,-110.1139984,-2.813936,-4.90342331,6.46475792,0.99725372,0.02208094,0.04407966,-0.05526845,-0.00031252,-0.00070428,0.00698116,0,0,0,0,1,2
2,0.79,77,0.08118376,-0.99421465,-0.01913386,0.10759728,-0.12767029,-0.12391358,-50.59923935,-15.87255192,-85.88131714,-1.03843129,2.26524472,12.98306274,0.99333346,0.0112367,-0.01861485,-0.11320758,0.00091462,-0.00153636,-0.00228827,0,0,0,0,1,2
4,0.79,75,-0.0753196,-0.99728966,-0.0537282,-1.27807188,-1.28394461,-0.21329473,-28.76351929,17.91873741,-100.496933,0.36297876,-0.24796258,-0.76128024,0.99997061,-0.00315313,0.00218486,0.00663647,0.00186274,0.00010123,0.00156235,0,0,0,0,1,2
1,0.8,76,0.07515163,-1.00559986,0.02428192,0.12247779,0.28001711,-0.02307954,-42.56065369,2.66004086,-109.0909042,-2.81249976,-4.90326977,6.46734571,0.99725276,0.02206752,0.04407812,-0.05529156,0.00003986,-0.00000287,0.00873492,0,0,0,0,1,2
2,0.8,78,0.0798514,-0.99565923,-0.01599859,0.19673148,-0.44025996,-0.05864754,-50.74539566,-15.78485775,-86.26132965,-1.03684056,2.26575136,12.97857475,0.99333799,0.01122268,-0.01862126,-0.11316845,0.00231957,0.001575,-0.00090024,0,0,0,0,1,2
4,0.8,76,-0.07797145,-0.99515128,-0.0533916,-0.97727615,-1.09337354,-0.1394624,-28.55890083,18.7079792,-100.1461563,0.35404006,-0.2471575,-0.7729212,0.99997026,-0.00307495,0.00217763,0.00673825,0.00425641,0.00048119,-0.00040247,0,0,0,0,1,2
1,0.81,77,0.07660975,-1.00634181,0.02118617,0.12393826,0.10615561,0.10891036,-42.56065369,2.66004086,-109.0909042,-2.81118393,-4.90439415,6.46817446,0.99725223,0.02205519,0.04408743,-0.05529901,-0.0013257,-0.00316465,0.00947487,0,0,0,0,1,2
2,0.81,79,0.07638508,-0.99611002,-0.01308242,0.30448347,-0.37342209,-0.00658883,-50.62847137,-16.3110199,-85.76439667,-1.0340991,2.26575089,12.9747057,0.9933421,0.01119828,-0.01862434,-0.11313447,0.0058049,0.00445245,-0.00059713,0,0,0,0,1,2
4,0.81,77,-0.0798626,-0.99515021,-0.05369031,-0.56934255,-0.40300313,-0.1144245,-29.02659988,17.91873741,-100.0584641,0.34866372,-0.24622774,-0.77740443,0.99997008,-0.003028,0.00216932,0.00677749,0.00615534,0.00030767,-0.00025505,0,0,0,0,1,2
1,0.82,78,0.07566807,-1.00473917,0.02059811,0.16095909,0.01972273,0.08815678,-42.15141678,2.51388478,-109.558609,-2.82764673,-4.88551712,6.47067308,0.99725461,0.02220696,0.0439316,-0.05531887,-0.00059242,-0.00358621,0.00770177,0,0,0,0,1,2
2,0.82,80,0.07620348,-0.9948777,-0.01360821,0.37584594,-0.14699493,-0.14451036,-50.62847137,-16.3110199,-85.76439667,-1.03047347,2.26716685,12.97305107,0.99334377,0.01116798,-0.01864035,-0.1131196,0.00595205,0.00387272,-0.00183663,0,0,0,0,1,2
4,0.82,78,-0.08143979,-0.99399245,-0.05232657,-0.56865478,0.09687453,-0.19849995,-28.50043869,18.21105003,-99.73691559,0.3429324,-0.24418725,-0.7769385,0.99997032,-0.00297812,0.00215116,0.00677359,0.00784251,0.00168642,-0.00138103,0,0,0,0,1,2
1,0.83,79,0.07597265,-1.00286329,0.02374854,0.48848975,-0.34126008,-0.03137524,-42.03449249,2.68927217,-109.6463013,-2.82301688,-4.88516045,6.46652031,0.99725759,0.02216843,0.04392545,-0.05528459,-0.00089991,-0.00012894,0.00611611,0,0,0,0,1,2
2,0.83,81,0.07796668,-0.9971534,-0.01346835,0.39398181,-0.11343525,-0.10935532,-50.33615875,-16.19409561,-85.99824524,-0.98459131,2.23908424,12.97681332,0.99334943,0.01074321,-0.01844184,-0.11314319,0.00418168,0.00376112,0.00050385,0,0,0,0,1,2
4,0.83,79,-0.07580421,-0.99723637,-0.05327345,-0.67553306,0.18371047,-0.24987258,-28.99736977,18.0356617,-100.496933,0.33607671,-0.24158788,-0.77571392,0.99997067,-0.00291847,0.00212805,0.0067631,0.00203446,0.00103923,0.00151396,0,0,0,0,1,2
1,0.84,80,0.0760338,-1.00274491,0.02753988,0.4384847,-0.63725036,-0.02456864,-42.35603714,2.57234716,-109.061676,-2.81910133,-4.88479519,6.45951509,0.99726194,0.02213723,0.04391903,-0.05522522,-0.00092434,0.00358434,0.00627682,0,0,0,0,1,2
2,0.84,82,0.08149222,-0.99706829,-0.01651171,0.46539983,-0.18304043,-0.11094534,-50.45308304,-16.19409561,-86.58287048,-0.98009729,2.2401588,12.97477055,0.99335164,0.01070498,-0.01845578,-0.1131248,0.00028777,0.00008794,0.00054244,0,0,0,0,1,2
4,0.84,80,-0.07229941,-0.99976492,-0.05373251,-0.65768886,0.09712394,-0.25107878,-28.99736977,18.0356617,-100.496933,0.34375584,-0.21045135,-0.77910626,0.99997079,-0.00298727,0.00185688,0.00679338,-0.00147127,0.00079225,0.00381478,0,0,0,0,1,2
1,0.85,81,0.07433245,-1.00047767,0.02568442,0.34299248,-0.20402502,0.06126013,-41.91756821,2.10464764,-109.4709168,-2.81582642,-4.88538551,6.45693541,0.99726355,0.02210942,0.04392209,-0.05520388,0.00036784,0.00184635,0.0036385,0,0,0,0,1,2
2,0.85,83,0.07966669,-0.99509728,-0.01671672,0.51918262,-0.25360692,-0.05992391,-50.74539566,-16.51563835,-86.37825012,-0.97512168,2.24071527,12.97199821,0.99335486,0.01066195,-0.01846578,-0.11310002,0.00204233,-0.00019642,-0.00150571,0,0,0,0,1,2
4,0.85,81,-0.06950248,-0.99911332,-0.05455547,-0.64241034,-0.1610446,-0.4634712,-28.61736298,18.35720444,-100.2046204,0.33749259,-0.20590749,-0.78140694,0.99997085,-0.00293285,0.00181691,0.00681367,-0.00377966,-0.00014491,0.00302002,0,0,0,0,1,2
1,0.86,82,0.07117141,-1.00259721,0.02233518,0.62717491,-0.00954181,0.03165101,-41.91756821,2.10464764,-109.4709168,-2.80956197,-4.88574743,6.45583344,0.99726522,0.02205514,0.04392201,-0.05519661,0.00378011,-0.00174581,0.00497845,0,0,0,0,1,2
2,0.86,84,0.0804615,-0.99634147,-0.01558707,0.43531701,-0.09978404,-0.01023645,-51.12540054,-16.45717621,-85.73516083,-0.97084963,2.240798,12.97080708,0.99335641,0.01062481,-0.01847083,-0.11308901,0.00130632,0.00085612,-0.00022921,0,0,0,0,1,2
4,0.86,82,-0.06653402,-0.99566817,-0.05184117,-0.39593574,-0.48890859,-0.5714823,-28.67582512,17.59719276,-100.0584641,0.33391812,-0.20046468,-0.78686589,0.99997067,-0.00290189,0.00176934,0.00686151,-0.00640278,0.00245033,-0.00078086,0,0,0,0,1,2
1,0.87,83,0.06949914,-1.00602221,0.02012645,0.36166316,-0.25592017,0.04191425,-42.4437294,2.66004086,-109.2955246,-2.85432959,-4.93476915,6.45522785,0.99723911,0.02242047,0.04437002,-0.05516251,0.00573295,-0.00407277,0.00795134,0,0,0,0,1,2
2,0.87,85,0.08186878,-0.99537104,-0.01551652,0.40032059,0.22767437,0.01147685,-51.12540054,-16.45717621,-85.73516083,-0.96666849,2.24071884,12.97292042,0.99335474,0.01058883,-0.01847407,-0.11310665,-0.00014025,0.0008452,-0.00113983,0,0,0,0,1,2
4,0.87,83,-0.0635488,-0.99237442,-0.05124453,-0.06019302,-1.04209459,-0.64765686,-28.41274452,17.59719276,-99.8830719,0.33410832,-0.19456571,-0.79764462,0.9999702,-0.00290375,0.00171815,0.00695571,-0.00904856,0.00285967,-0.00430422,0,0,0,0,1,2
1,0.88,84,0.07430058,-1.00591159,0.02278806,0.14863794,-0.46705246,0.1914604,-42.23910904,2.63080978,-109.9386139,-2.85319757,-4.936584,6.45032072,0.99724102,0.02241161,0.04438431,-0.05511981,0.00034966,-0.00081332,0.00888267,0,0,0,0,1,2
2,0.88,86,0.07880652,-0.99618787,-0.01715496,0.50852919,0.58829361,0.03203729,-50.59923935,-16.36948204,-86.05670929,-0.99243194,2.23958921,12.97631836,0.99334919,0.0108116,-0.01843853,-0.1131402,0.00294447,-0.00074183,-0.00045505,0,0,0,0,1,2
4,0.88,84,-0.06038965,-0.99059922,-0.05234133,-0.13092838,-1.45744777,-0.72373456,-28.70505714,17.97719955,-100.0876923,0.33388698,-0.18813977,-0.81264877,0.99996936,-0.00290199,0.00166244,0.00708681,-0.01196925,0.00164971,-0.00622569,0,0,0,0,1,2
1,0.89,85,0.07499988,-1.00333321,0.02076643,-0.23599836,-0.14600125,0.50672901,-42.41449738,1.52002335,-109.5293732,-2.85572219,-4.94159698,6.44914007,0.99723929,0.02243153,0.04442891,-0.05510737,-0.00084212,-0.00261841,0.00631707,0,0,0,0,1,2
2,0.89,87,0.08417274,-0.99434972,-0.01938959,0.31086582,0.35028055,-0.03854683,-50.89155197,-17.12949371,-85.50131226,-0.98904973,2.24003291,12.97968388,0.99334604,0.01078326,-0.01844539,-0.11316885,-0.00250161,-0.00263782,-0.00205777,0,0,0,0,1,2
4,0.89,85,-0.06073271,-0.99200016,-0.05385229,-0.07664943,-1.83875084,-0.69439471,-28.44197655,18.21105003,-100.3507767,0.32902172,-0.06210603,-0.84790516,0.99996847,-0.00286716,0.00056321,0.00739771,-0.01110101,0.00025894,-0.00471765,0,0,0,0,1,2
1,0.9,86,0.07387549,-1.00255394,0.01816507,0.15320207,0.20603251,0.55130303,-42.4437294,2.42619109,-109.3832169,-2.85408807,-4.94716978,6.45081425,0.99723679,0.02241388,0.04447694,-0.05512124,0.00002175,-0.00515486,0.0051922,0,0,0,0,1,2
2,0.9,88,0.08238463,-0.99199992,-0.02474255,0.3464922,-0.20613751,0.16424321,-50.16077042,-17.24641991,-85.73516083,-0.98576111,2.23835206,12.97750282,0.99334884,0.01075274,-0.01843428,-0.11314933,-0.00083114,-0.00804285,-0.00448611,0,0,0,0,1,2
4,0.9,86,-0.06445412,-0.9991442,-0.05604807,0.09732614,-2.09648466,-0.92339963,-28.44197655,18.21105003,-100.3507767,0.33150518,-0.05403209,-0.86922485,0.99996698,-0.00288926,0.00049345,0.00758395,-0.00619753,-0.00146533,0.002783,0,0,0,0,1,2
1,0.91,87,0.07120155,-1.00392365,0.02286221,0.62235421,-0.06649119,0.5204373,-42.4437294,2.42619109,-109.3832169,-2.84796286,-4.95240498,6.44904709,0.99723691,0.02235864,0.04451921,-0.055107,0.00283843,-0.00065236,0.00645725,0,0,0,0,1,2
2,0.91,89,0.07825278,-0.99376196,-0.01972224,0.70315093,-0.79585814,0.17092741,-51.09616852,-16.19409561,-86.49517822,-0.9794119,2.23650646,12.9692688,0.99335784,0.01069456,-0.01842531,-0.11307682,0.00334164,-0.0031182,-0.00290257,0,0,0,0,1,2
4,0.91,87,-0.07545815,-1.00696838,-0.05378139,0.09535988,-2.32031465,-1.10059404,-28.646595,17.74334908,-100.7892456,0.33411697,-0.04430868,-0.89286184,0.99996531,-0.00291261,0.00040937,0.00779045,0.00440574,0.0012199,0.01120206,0,0,0,0,1,2
1,0.92,88,0.07332875,-1.00586236,0.02875623,0.31755611,-0.03529764,0.52389473,-42.35603714,2.98158431,-109.1786041,-2.76565814,-4.94691086,6.43910503,0.99725944,0.02164897,0.04442993,-0.0550537,0.00107273,0.00465809,0.00910991,0,0,0,0,1,2
2,0.92,90,0.08676608,-1.00094032,-0.00870952,0.5776,-1.14132714,0.25559771,-51.09616852,-16.19409561,-86.49517822,-0.97458094,2.2337575,12.95765495,0.99337023,0.01064811,-0.01840733,-0.11297521,-0.00490143,0.00779369,0.00463561,0,0,0,0,1,2
4,0.92,88,-0.08518809,-1.01529586,-0.04785627,-0.2251516,-2.23290753,-1.27467906,-28.93890572,18.32797432,-99.97076416,0.33348286,-0.0327983,-0.91595578,0.99996382,-0.0029078,0.00030947,0.00799227,0.01374925,0.00761469,0.01981362,0,0,0,0,1,2
1,0.93,89,0.07363283,-1.00500655,0.02889103,-0.27822876,0.32259789,0.59345293,-42.58988571,2.57234716,-109.9386139,-2.76826692,-4.95290375,6.44260454,0.99725521,0.02166733,0.044484,-0.05508177,0.00067486,0.00383479,0.00827221,0,0,0,0,1,2
2,0.93,91,0.09027329,-1.00815356,-0.01059338,0.54202473,-1.12451208,0.29113445,-50.68693161,-16.57410049,-86.26132965,-0.91594535,2.30220103,12.94775867,0.99337304,0.01020545,-0.01905936,-0.1128834,-0.00783691,0.00558587,0.011996,0,0,0,0,1,2
4,0.93,89,-0.09115916,-1.01742399,-0.04351643,-0.98762441,-1.47124529,-1.37129533,-28.61736298,18.47413063,-100.7307816,0.32471272,-0.01990703,-0.93204314,0.99996287,-0.00283214,0.00019676,0.00813299,0.0197941,0.0121784,0.02208564,0,0,0,0,1,2
1,0.94,90,0.07320751,-1.00307667,0.02533918,-0.45690843,0.28574508,0.610753,-42.61911774,2.80619693,-109.558609,-2.77269745,-4.95904589,6.44602251,0.99725038,0.02170149,0.04454022,-0.05510837,0.0006428,0.00050175,0.00606169,0,0,0,0,1,2
2,0.94,92,0.08873715,-1.00774372,-0.01300657,0.64930868,-1.31660593,0.35762468,-50.71616364,-17.07103157,-86.37825012,-0.9105652,2.29841805,12.93437481,0.99338734,0.01015287,-0.01903305,-0.1127663,-0.00544396,0.00237321,0.01154125,0,0,0,0,1,2
4,0.94,90,-0.09398634,-1.01291502,-0.04614603,-1.58779883,-0.10557307,-1.12781024,-28.85121346,17.94796753,-100.6430893,0.39791602,-0.27742255,-0.89381945,0.99996078,-0.00345347,0.00244796,0.00779149,0.02195468,0.00912665,0.0179542,0,0,0,0,1,2
1,0.95,91,0.07572936,-1.00199282,0.01945499,-0.33139363,0.28724012,0.57525933,-42.23910904,2.42619109,-110.0555344,-2.77585793,-4.96484232,6.44926119,0.99724615,0.02172485,0.04459279,-0.05513398,-0.00219302,-0.0052243,0.00498521,0,0,0,0,1,2
2,0.95,93,0.08436081,-1.00097668,-0.01385488,0.3823745,-0.76368105,0.41944996,-50.3946228,-16.51563835,-85.99824524,-0.9073714,2.29410481,12.92663479,0.99339604,0.01011967,-0.01899949,-0.11269845,-0.00143313,0.00146264,0.00458888,0,0,0,0,1,2
4,0.95,91,-0.09763448,-1.00225985,-0.04714476,-1.51356184,1.19026124,-0.65611792,-28.85121346,17.94796753,-100.6430893,0.38199165,-0.27021649,-0.88336384,0.99996209,-0.00331521,0.00238369,0.0077008,0.02296748,0.00660766,0.00767131,0,0,0,0,1,2
1,0.96,92,0.07524209,-1.00549316,0.01634133,-0.21423501,-0.47595021,0.56363887,-42.23910904,2.42619109,-110.0555344,-2.77839828,-4.97034264,6.44475508,0.99724579,0.02174596,0.04464101,-0.05509249,-0.00128953,-0.00854433,0.00814142,0,0,0,0,1,2
2,0.96,94,0.0807846,-0.99596393,-0.01212636,0.40167737,-0.26546958,0.49502262,-50.3946228,-16.51563835,-85.99824524,-0.90358651,2.28911066,12.9238863,0.99340004,0.01008151,-0.01896016,-0.11267376,0.00184899,0.00313441,-0.00057525,0,0,0,0,1,2
4,0.96,92,-0.10118864,-0.98940396,-0.05189668,-1.36558008,2.51907992,0.04241991,-28.96813774,17.86027527,-100.7015457,0.36649567,-0.26928186,-0.85918856,0.99996406,-0.00318055,0.00237383,0.00749019,0.02744436,0.00136251,-0.00459958,0,0,0,0,1,2
1,0.97,93,0.07882848,-1.00607789,0.02550509,-0.9911083,-1.33645785,0.55522519,-42.26834106,2.48465347,-109.2662964,-2.73241472,-4.88698721,6.42764139,0.99729288,0.02139392,0.04389037,-0.05498052,-0.00433401,0.00043941,0.00991408,0,0,0,0,1,2
2,0.97,95,0.0848484,-0.99170494,-0.00764886,0.22421886,-0.02663497,0.69200265,-50.6577034,-16.80795097,-85.85208893,-0.901366,2.28218794,12.92363071,0.99340171,0.01005543,-0.01890234,-0.11267084,-0.00250469,0.00757135,-0.00465942,0,0,0,0,1,2
4,0.97,93,-0.10364304,-0.97929633,-0.05683036,-1.00600743,4.00420952,0.7443108,-28.82198143,16.86641312,-100.1461563,0.35345715,-0.27454799,-0.81960195,0.99996686,-0.00306727,0.00241787,0.00714487,0.03052027,-0.00393372,-0.01419863,0,0,0,0,1,2
1,0.98,94,0.08864395,-1.00589585,0.02955554,-1.2714678,-1.89592564,0.72708511,-41.91756821,2.48465347,-109.3539887,-2.74661803,-4.89367437,6.41071129,0.99729592,0.0215207,0.0439522,-0.05482621,-0.01295947,0.0039896,0.0114712,0,0,0,0,1,2
2,0.98,96,0.08454609,-0.98998171,-0.00822718,0.26137179,0.21060462,0.86917311,-50.6577034,-16.60333252,-86.2028656,-0.80604136,2.26817942,12.93629265,0.99339986,0.0092174,-0.0188736,-0.11276428,-0.00244153,0.0065379,-0.00640774,0,0,0,0,1,2
4,0.98,94,-0.10055589,-0.97293961,-0.06322467,-0.73136038,5.27963018,1.65127563,-28.55890083,17.12949371,-100.2923126,0.34218124,-0.28816795,-0.76661849,0.99997008,-0.00296919,0.00253465,0.0066824,0.02767413,-0.0104923,-0.02035857,0,0,0,0,1,2
1,0.99,95,0.09049618,-1.01064706,0.02622301,-0.64679354,-1.83669782,0.94940054,-42.23910904,2.51388478,-109.5878372,-2.75454974,-4.90264988,6.39332008,0.99729961,0.02159196,0.04403082,-0.05466975,-0.0142174,0.00051188,0.01622609,0,0,0,0,1,2
2,0.99,97,0.07455689,-0.98955446,-0.004303,0.22517155,0.05617411,0.85026616,-50.5407753,-16.86641312,-86.11517334,-0.80375236,2.25968528,12.93687344,0.99340093,0.00918931,-0.01880217,-0.11276858,0.00730003,0.0092127,-0.00728685,0,0,0,0,1,2
4,0.99,95,-0.09148681,-0.9696945,-0.07347099,-0.63359374,6.22612,2.48294067,-29.23121834,18.44489861,-100.6138535,0.06843022,-0.44149518,-0.66542721,0.99997562,-0.00057478,0.00385616,0.00580457,0.01791046,-0.01956992,-0.02360323,0,0,0,0,1,2
1,1,96,0.08751728,-1.0154829,0.02759564,0.24574815,-1.54811347,0.78024697,-42.41449738,2.77696586,-109.4124527,-2.7532866,-4.91007757,6.37740517,0.99730468,0.02158341,0.04409185,-0.05453002,-0.01063517,0.00155834,0.02062643,0,0,0,0,1,2
2,1,98,0.06118755,-0.99033707,-0.00438685,0.26001546,0.05997258,0.6576823,-51.06694031,-15.81408882,-86.26132965,-0.80108911,2.25311756,12.93745136,0.99340177,0.00915987,-0.0187478,-0.11277288,0.02056308,0.00908578,-0.00708224,0,0,0,0,1,2
4,1,96,-0.07819748,-0.96973151,-0.08212004,-0.36108944,6.32613945,3.04204893,-28.61736298,16.80795097,-100.6430893,0.0598193,-0.46811351,-0.60087872,0.99997783,-0.00050059,0.00408773,0.00524145,0.00244818,-0.02459344,-0.02396713,0,0,0,0,1,2
1,1.01,97,0.08004272,-1.01287067,0.02859775,0.35433683,-1.49443591,0.45272693,-42.06372452,2.68927217,-109.0909042,-2.75088215,-4.91424894,6.36192513,0.997311,0.02156639,0.0441241,-0.05439525,-0.00375201,0.00270706,0.01694418,0,0,0,0,1,2
2,1.01,99,0.04673491,-0.99047953,-0.00172826,-0.06093692,1.13688147,0.42914587,-51.06694031,-15.81408882,-86.26132965,-0.8007701,2.24897838,12.94890022,0.99339122,0.00915491,-0.01871132,-0.1128719,0.03491836,0.01171415,-0.00756039,0,0,0,0,1,2
4,1.01,97,-0.06664607,-0.97405583,-0.08725306,0.03054621,5.32152557,3.09848213,-28.61736298,16.80795097,-100.6430893,0.05582658,-0.49589399,-0.54603237,0.99997914,-0.00046655,0.00432975,0.00476286,-0.00987945,-0.02935665,-0.02015067,0,0,0,0,1,2
1,1.02,98,0.07104976,-1.0057776,0.02908015,0.24496713,-1.14780736,0.01653112,-42.06372452,2.68927217,-109.0909042,-2.70915198,-5.00900745,6.3500762,0.99728978,0.02116117,0.0449267,-0.05428671,0.00357008,0.00349816,0.00859308,0,0,0,0,1,2
2,1.02,100,0.05204069,-0.9890753,-0.00354501,-0.25574091,2.55663276,0.23824446,-51.24232483,-16.10640144,-86.14440155,-0.80121863,2.24694133,12.97460938,0.99336618,0.00916099,-0.01869116,-0.11309476,0.02951032,0.00990625,-0.00873914,0,0,0,0,1,2
4,1.02,98,-0.05836305,-0.98249942,-0.09452448,-0.00881189,4.23364401,2.63006139,-28.73428726,18.38643646,-100.4092331,0.05229226,-0.51963598,-0.50231081,0.99998009,-0.00043645,0.00453662,0.00438136,-0.01920492,-0.03604154,-0.01187687,0,0,0,0,1,2
1,1.03,99,0.05998956,-1.00234497,0.02856122,0.31519356,-0.90345669,-0.28639668,-42.53142166,3.09850907,-109.4416809,-2.70662165,-5.00593138,6.34069157,0.9972958,0.02114434,0.044897,-0.05420673,0.01273688,0.00266198,0.00349502,0,0,0,0,1,2
2,1.03,101,0.06020118,-0.98870039,-0.02018261,-0.38080332,2.92238736,0.12155955,-50.95001221,-16.25255775,-85.99824524,-0.94380993,2.03560328,13.01346111,0.99335158,0.0101947,-0.01671485,-0.11344354,0.0203996,-0.00609575,-0.00879905,0,0,0,0,1,2
4,1.03,99,-0.05304656,-0.99482906,-0.09041181,0.12176012,2.83840489,1.63634026,-29.05583191,17.07103157,-100.9646301,0.05120981,-0.53428453,-0.47299013,0.99998051,-0.00042764,0.0046643,0.00412548,-0.02566629,-0.03115059,-0.00021315,0,0,0,0,1,2
1,1.04,100,0.05336609,-0.9980225,0.02813644,0.38285595,-0.52024674,-0.44581866,-42.53142166,2.952353,-109.4416809,-2.70312428,-5.00136852,6.33503914,0.9973008,0.02111836,0.0448546,-0.05415993,0.01865534,0.00250044,-0.00185317,0,0,0,0,1,2
2,1.04,102,0.06859818,-0.99089491,-0.02400719,-0.31139427,2.35703301,-0.07810339,-49.80999756,-16.45717621,-86.84594727,-0.94506788,2.03676248,13.03714752,0.9933278,0.0102102,-0.01672155,-0.1136491,0.00935482,-0.00804255,-0.00632372,0,0,0,0,1,2
4,1.04,100,-0.05259667,-1.00988364,-0.07167497,-0.08730371,1.18530416,0.30682915,-28.76351929,17.18795586,-100.847702,0.04340079,-0.25446516,-0.45889634,0.99998951,-0.00036985,0.00222212,0.00400376,-0.02598159,-0.01151244,0.01361232,0,0,0,0,1,2
1,1.05,101,0.04455404,-0.99791354,0.03033973,0.34192297,-0.01661335,-0.66918737,-42.1806488,2.48465347,-109.5293732,-2.69964099,-4.994699,6.33449459,0.9973042,0.02109152,0.04479482,-0.05415807,0.0274656,0.00464089,-0.00321496,0,0,0,0,1,2
2,1.05,103,0.0763256,-0.99988765,-0.02284224,-0.24253421,1.77669239,-0.38280222,-50.5407753,-16.34025192,-86.29055786,-0.946105,2.04087639,13.0549469,0.99330938,0.01022586,-0.01675459,-0.11380377,0.00207334,-0.00686906,0.00299382,0,0,0,0,1,2
4,1.05,101,-0.05620676,-1.02001941,-0.04833497,-1.92124152,0.16946393,-0.93408477,-28.47120667,17.45103836,-100.2338486,0.02416748,-0.24503358,-0.45909059,0.99998975,-0.00020233,0.00213915,0.00400585,-0.0191931,0.01267622,0.02252553,0,0,0,0,1,2
1,1.06,102,0.04090736,-0.99950367,0.03178547,-0.40023807,0.65247446,-0.74277437,-42.38526535,3.09850907,-109.8801498,-2.70310211,-4.98741674,6.34178114,0.99730277,0.02112238,0.04473441,-0.05422178,0.03146075,0.00597328,-0.00213603,0,0,0,0,1,2
2,1.06,104,0.08228578,-1.00449193,-0.02408819,-0.01261201,0.69012022,-0.46799421,-50.5407753,-16.34025192,-86.29055786,-0.94570082,2.04566455,13.06177998,0.99330187,0.0102281,-0.01679589,-0.1138632,-0.00360624,-0.00811533,0.00785089,0,0,0,0,1,2
4,1.06,102,-0.05781836,-1.02019453,-0.03396125,-4.38921976,0.63953054,-1.80819142,-28.47120667,17.45103836,-100.2338486,-0.01999386,-0.2266022,-0.45686138,0.99999011,0.00018236,0.00197676,0.00398719,-0.01727143,0.02765219,0.02194607,0,0,0,0,1,2
1,1.07,103,0.04309605,-0.99355286,0.02615048,-0.89816707,1.67163658,-0.4593901,-42.38526535,3.09850907,-109.8801498,-2.72282529,-5.28736448,6.37502289,0.99716967,0.02113291,0.04735989,-0.05443483,0.02706942,0.00095863,-0.00793363,0,0,0,0,1,2
2,1.07,105,0.08495161,-0.99851227,-0.01957867,-0.10416549,0.07378145,-0.63156772,-49.51768494,-15.9894762,-86.49517822,-0.946688,2.05199361,13.06245804,0.99330008,0.01024303,-0.01684971,-0.11386956,-0.00642075,-0.00358913,0.00199709,0,0,0,0,1,2
4,1.07,103,-0.05853364,-1.01331997,-0.03463037,-5.59805441,2.07793427,-2.14024186,-28.7927494,18.06489372,-99.94153595,-0.07724867,-0.20397167,-0.44136113,0.99999076,0.00068097,0.00177738,0.00385278,-0.01571023,0.02749719,0.0151896,0,0,0,0,1,2
1,1.08,104,0.04570822,-0.99630409,0.02057621,-0.12964892,3.05307364,-0.13770916,-42.76527405,2.74773455,-109.6755295,-2.72206998,-5.28676748,6.40552759,0.99715549,0.02111402,0.04735997,-0.05470072,0.02092606,-0.00462092,-0.00484698,0,0,0,0,1,2
2,1.08,106,0.07645781,-0.98669159,-0.01705875,0.03725416,-0.1635993,-0.88057488,-50.30692673,-16.01870728,-86.2028656,-0.95921344,1.98074269,13.06237793,0.99331045,0.01028098,-0.01621964,-0.11386678,0.00134355,-0.00100776,-0.01018123,0,0,0,0,1,2
4,1.08,104,-0.06102886,-1.00167763,-0.04543423,-5.58226299,3.53248453,-2.03153586,-28.44197655,17.59719276,-100,-0.13539572,-0.1815086,-0.41133013,0.99999166,0.00118723,0.00157971,0.00359139,-0.01205832,0.01704795,0.00441984,0,0,0,0,1,2
1,1.09,105,0.04737892,-0.99864846,0.01979304,-0.20980214,3.62536693,0.0914974,-42.47296143,2.83542824,-109.4124527,-2.7217617,-5.28860617,6.44177818,0.99713749,0.02109544,0.04738249,-0.05501587,0.01962133,-0.00559278,-0.00232855,0,0,0,0,1,2
2,1.09,107,0.06832437,-0.98245537,-0.01059612,0.35844126,-0.40637353,-0.95680791,-50.71616364,-15.90178299,-86.14440155,-0.95596522,1.99024117,13.05801105,0.99331361,0.01026161,-0.01630559,-0.113829,0.00840574,0.00558476,-0.014787,0,0,0,0,1,2
4,1.09,105,-0.06309953,-0.9886384,-0.06086872,-4.1431632,3.84173799,-1.3593725,-29.05583191,17.36334419,-100.7892456,-0.24121454,-0.08043347,-0.37866199,0.99999213,0.0021073,0.00069495,0.00330591,-0.00845195,0.00200433,-0.0074908,0,0,0,0,1,2
1,1.1,106,0.05275698,-1.00011981,0.01828182,-0.82573354,4.10455656,0.28675151,-41.82987213,2.63080978,-109.9970779,-2.72730327,-5.29246902,6.48371029,0.99711472,0.02112438,0.04742649,-0.05537757,0.01447441,-0.00715371,-0.0001258,0,0,0,0,1,2
2,1.1,108,0.07084253,-0.98628515,-0.00472327,0.62629336,-0.77194118,-0.91157007,-50.62847137,-16.01870728,-86.17362976,-0.95032555,1.99922585,13.04988003,0.9933207,0.01022046,-0.0163898,-0.11375819,0.00621185,0.0113773,-0.01084594,0,0,0,0,1,2
4,1.1,106,-0.06307677,-0.9837274,-0.07022062,-1.67608583,2.9915123,-0.61263478,-28.99736977,17.7725811,-100.1753845,-0.26001078,-0.07238812,-0.35043097,0.99999255,0.00227094,0.00062476,0.00305951,-0.00686829,-0.0063421,-0.01181824,0,0,0,0,1,2
1,1.11,107,0.06272242,-1.00633645,0.0167554,-1.5635649,4.33910227,0.42205006,-42.29757309,1.34463608,-109.500145,-2.7400825,-5.29768276,6.52911186,0.99708843,0.02121414,0.04748644,-0.05576614,0.00552192,-0.00895512,0.00748577,0,0,0,0,1,2
2,1.11,109,0.05516405,-0.99221772,-0.01185157,0.85761505,-0.68151212,-1.21011627,-50.62847137,-16.01870728,-86.17362976,-0.9423117,2.01121235,13.04250145,0.9933269,0.0101618,-0.01650232,-0.11369374,0.02231622,0.00412288,-0.00558817,0,0,0,0,1,2
4,1.11,107,-0.06352651,-0.98546249,-0.06949237,-1.16939414,1.84353435,0.06805279,-28.9096756,17.83104324,-100.7892456,-0.27297598,-0.07187096,-0.33284312,0.99999279,0.00238397,0.00062027,0.00290608,-0.00647996,-0.00525887,-0.01010195,0,0,0,0,1,2
1,1.12,108,0.07150336,-1.00946832,0.0139635,-1.66840446,4.07711983,0.55160981,-42.29757309,1.34463608,-109.500145,-2.8988564,-5.24867058,6.61387777,0.99703562,0.0225856,0.04715399,-0.05644974,-0.00255119,-0.01108569,0.01179624,0,0,0,0,1,2
2,1.12,110,0.042998,-0.99808383,-0.01207982,1.01834643,0.06645998,-1.58754122,-50.95001221,-16.25255775,-86.2028656,-0.93210483,2.02708745,13.04248524,0.99332517,0.01008904,-0.01665006,-0.11369295,0.03497569,0.00372524,-0.00024155,0,0,0,0,1,2
4,1.12,108,-0.06242209,-0.99216574,-0.07448153,-0.52428651,1.35495722,0.65494233,-28.9096756,17.83104324,-100.7892456,-0.27918425,-0.07752402,-0.31929818,0.99999297,0.00243821,0.00066973,0.00278804,-0.00812763,-0.00967076,-0.00320275,0,0,0,0,1,2
1,1.13,109,0.07396457,-1.00956571,0.01260956,-1.1358248,3.11041546,0.35638094,-41.56679153,2.07541656,-109.7632294,-2.90814018,-5.2528491,6.64644146,0.99701601,0.02265081,0.04720135,-0.05672822,-0.00434743,-0.0103607,0.01223035,0,0,0,0,1,2
2,1.13,111,0.0562687,-1.00250268,-0.01626034,1.02010822,1.05047631,-1.64587557,-50.86231995,-16.01870728,-86.0859375,-0.98036504,1.92230129,13.05766869,0.99332231,0.01040575,-0.01569244,-0.1138256,0.02166456,-0.00038541,0.00473162,0,0,0,0,1,2
4,1.13,109,-0.06305267,-1.00271022,-0.07541046,0.7198081,1.43932772,1.23588681,-28.7927494,17.74334908,-100.3507767,-0.27308998,-0.08892498,-0.30366802,0.99999338,0.0023852,0.0007697,0.00265184,-0.00839579,-0.00999274,0.00739682,0,0,0,0,1,2
1,1.14,110,0.07335996,-0.99706644,0.01617889,-0.54827613,2.14454603,-0.06411219,-42.4437294,1.72464192,-109.8216858,-2.91219783,-5.25264835,6.66858816,0.99700433,0.0226771,0.04720599,-0.05691929,-0.00571938,-0.00578583,0.00009093,0,0,0,0,1,2
2,1.14,112,0.07776612,-1.00476658,-0.02456076,0.89664173,2.00079226,-1.68577945,-50.48231506,-16.07716942,-86.05670929,-0.9699111,1.93947899,13.07700634,0.99330139,0.01033483,-0.01584999,-0.11399277,-0.00101295,-0.00809979,0.0078728,0,0,0,0,1,2
4,1.14,110,-0.06760607,-1.00869477,-0.07412626,1.46393478,2.49484706,1.58553183,-28.61736298,18.44489861,-100.9938583,-0.38073325,-0.07969204,-0.28609294,0.99999112,0.00332424,0.00068714,0.00249892,-0.00439391,-0.00800907,0.01359739,0,0,0,0,1,2
1,1.15,111,0.06415404,-0.99005133,0.0140824,0.26597479,1.6504755,-0.46899676,-42.1806488,2.42619109,-109.7632294,-2.9083693,-5.24835587,6.6846242,0.99699879,0.02263941,0.04716992,-0.05706144,0.00228205,-0.00737934,-0.00843566,0,0,0,0,1,2
2,1.15,113,0.1030364,-1.01140463,-0.03221583,0.78914803,2.05461431,-1.73641896,-50.71616364,-16.10640144,-86.72902679,-0.9604705,1.95717084,13.09692001,0.9932797,0.01027333,-0.01601096,-0.11416507,-0.02566325,-0.0159315,0.01558892,0,0,0,0,1,2
4,1.15,111,-0.06946545,-1.00127387,-0.07721373,1.49605894,3.30996466,1.49354541,-28.646595,18.15258598,-101.0815506,-0.36820626,-0.09236956,-0.25110704,0.99999219,0.00321496,0.00079903,0.0021939,-0.00196927,-0.01019117,0.00653019,0,0,0,0,1,2
1,1.16,112,0.05524877,-0.99852759,0.01489052,0.09020165,1.38776886,-0.46001387,-42.1806488,1.7831043,-109.2370606,-2.90647388,-5.24407911,6.69833231,0.99699396,0.0226195,0.04713447,-0.05718253,0.01251013,-0.00725911,-0.00145831,0,0,0,0,1,2
2,1.16,114,0.12108763,-1.00898886,-0.0369138,0.94826382,0.4781813,-1.45959163,-50.71616364,-16.10640144,-86.72902679,-0.95064837,1.97183466,13.10106087,0.99327415,0.01020335,-0.01614748,-0.1142004,-0.04352386,-0.02079301,0.01395132,0,0,0,0,1,2
4,1.16,112,-0.06969001,-0.99072194,-0.08121438,1.57894492,3.3304913,1.11179399,-29.14352417,18.12335587,-100.6723175,-0.35487145,-0.10123665,-0.21611942,0.99999309,0.00309849,0.00087761,0.00188872,-0.00121175,-0.01504304,-0.00372214,0,0,0,0,1,2
1,1.17,113,0.0528176,-1.00060141,0.01779025,-0.40745321,1.01690018,-0.2795791,-42.1806488,1.7831043,-109.2370606,-2.95693922,-5.37778139,6.71298742,0.9969244,0.02298292,0.04832565,-0.05725609,0.01474019,-0.00428011,0.00046736,0,0,0,0,1,2
2,1.17,115,0.12358029,-1.00056624,-0.03200174,1.18074441,-0.74143106,-0.96961981,-51.12540054,-15.84332085,-86.29055786,-0.93944055,1.98140383,13.09299088,0.99328172,0.01011457,-0.01624231,-0.11412938,-0.04617212,-0.01605948,0.00564959,0,0,0,0,1,2
4,1.17,113,-0.06886148,-0.98138064,-0.08288679,1.55413985,2.55585408,0.47427428,-29.14352417,18.12335587,-100.6723175,-0.34121215,-0.10427262,-0.18928298,0.9999938,0.00297913,0.00090503,0.00165451,-0.00149043,-0.01751438,-0.01298217,0,0,0,0,1,2
1,1.18,114,0.06405976,-1.00694013,0.02160356,-0.65637463,0.63123274,0.2789886,-42.00526047,2.63080978,-109.6755295,-2.96313047,-5.38065481,6.72023964,0.99691844,0.02303223,0.0483552,-0.05731585,0.00290252,-0.00025911,0.00897089,0,0,0,0,1,2
2,1.18,116,0.12372918,-0.99304247,-0.01890968,1.20021176,-1.25310171,-0.43405494,-50.97924423,-16.16486359,-86.37825012,-0.88524246,2.48341084,13.08860397,0.99320209,0.01014268,-0.02064806,-0.11410755,-0.04436428,-0.00335058,-0.00177202,0,0,0,0,1,2
4,1.18,114,-0.06648064,-0.97239488,-0.08489484,1.52988958,1.17529428,-0.2244391,-28.88044357,18.26951218,-100.3507767,-0.32676607,-0.101247,-0.17666873,0.9999944,0.00285292,0.00087915,0.00154424,-0.00323846,-0.02031206,-0.02197592,0,0,0,0,1,2
1,1.19,115,0.07751994,-1.01223397,0.02001573,-1.51926696,0.65543592,0.83996797,-42.00526047,2.25080395,-109.0909042,-2.97801805,-5.38907003,6.72899055,0.99690765,0.02315366,0.04843761,-0.05738359,-0.00967889,-0.00202362,0.01623053,0,0,0,0,1,2
2,1.19,117,0.11877546,-0.99285752,-0.00845971,1.31040657,-0.97081023,0.02249978,-50.6577034,-16.9833374,-85.93978119,-0.87302184,2.48303318,13.07834148,0.99321342,0.01003454,-0.02065786,-0.11401637,-0.03288539,0.00632616,-0.00192026,0,0,0,0,1,2
4,1.19,115,-0.06279767,-0.9661988,-0.0841202,1.43392336,-0.27400249,-1.01144624,-28.70505714,17.01256943,-100.1169205,-0.52805787,-0.00527338,-0.18970342,0.99998802,0.00460823,0.00003839,0.00165567,-0.00597569,-0.01921975,-0.02844328,0,0,0,0,1,2
1,1.2,116,0.08897482,-1.01425159,0.01312937,-1.86289775,0.75535357,1.22680688,-42.12218475,2.74773455,-109.558609,-2.99631834,-5.40134048,6.73920536,0.99689394,0.02330213,0.04855558,-0.05746163,-0.02093909,-0.00872972,0.01957793,0,0,0,0,1,2
2,1.2,118,0.10708104,-0.99298811,-0.00338589,1.29712594,-0.22534376,0.64314103,-51.00847626,-16.74948883,-85.5305481,-0.86027503,2.47656107,13.07562351,0.99321854,0.00991715,-0.02061468,-0.11399025,-0.02126855,0.01117827,-0.00229364,0,0,0,0,1,2
4,1.2,116,-0.05916817,-0.9649688,-0.07868282,1.28908539,-1.93335629,-1.54105771,-28.7927494,16.92487526,-99.94153595,-0.51378858,0.00876955,-0.2091171,0.99998832,0.00448349,-0.00008471,0.00182453,-0.00814005,-0.01129251,-0.03022952,0,0,0,0,1,2
1,1.21,117,0.09848441,-1.01847398,0.00611169,-1.23461628,0.51920217,1.47284305,-42.26834106,2.68927217,-109.2662964,-3.00849652,-5.41607046,6.74603653,0.99688226,0.02339747,0.04869121,-0.05751218,-0.02998246,-0.01577813,0.02478012,0,0,0,0,1,2
2,1.21,119,0.0913523,-0.98745567,-0.00342311,1.1564399,0.11320864,0.99819779,-51.00847626,-16.74948883,-85.5305481,-0.84865558,2.46658802,13.07640553,0.99322063,0.00980668,-0.02053973,-0.11399449,-0.0059501,0.0109362,-0.00850352,0,0,0,0,1,2
4,1.21,117,-0.05838579,-0.97065502,-0.07217582,1.6058377,-2.77997661,-1.76077855,-29.26045036,17.88950539,-100.7600098,-0.49576861,0.02442368,-0.23688348,0.9999885,0.00432593,-0.00022208,0.00206625,-0.00902332,-0.00473694,-0.02501553,0,0,0,0,1,2
1,1.22,118,0.10851209,-1.01924765,0.00696654,-0.52236587,-0.48012617,1.24045682,-42.26834106,2.68927217,-109.2662964,-3.13875914,-4.95042658,6.81918955,0.99699485,0.02474589,0.04472186,-0.05821505,-0.03790774,-0.01429207,0.02706757,0,0,0,0,1,2
2,1.22,120,0.08076653,-0.98725569,-0.00914074,1.19370353,0.4021596,1.1759764,-50.80385971,-16.63256264,-85.85208893,-0.83639163,2.45488071,13.08008003,0.99322033,0.00968943,-0.02045014,-0.11402366,0.00442303,0.00500384,-0.00917039,0,0,0,0,1,2
4,1.22,118,-0.06104796,-0.97794235,-0.06623548,1.97825694,-3.28195405,-1.73170531,-29.05583191,17.86027527,-100.1169205,-0.47371477,0.03945099,-0.26936397,0.99998868,0.00413311,-0.00035399,0.0023492,-0.00657617,0.00126934,-0.01793451,0,0,0,0,1,2
1,1.23,119,0.11115862,-1.00947511,0.01421103,-0.18864872,-1.17088366,0.76279968,-42.29757309,2.51388478,-109.9678421,-3.14156795,-4.95781851,6.80775785,0.99699742,0.02477089,0.04478513,-0.05811257,-0.03591815,-0.00464161,0.01792585,0,0,0,0,1,2
2,1.23,121,0.06536721,-0.98798007,-0.01255092,1.1047169,0.78369772,1.11152112,-50.89155197,-15.90178299,-86.11517334,-0.82280755,2.16535759,13.08767033,0.99326652,0.00928553,-0.01795345,-0.1140748,0.0184282,0.00139293,-0.00916697,0,0,0,0,1,2
4,1.23,119,-0.06503262,-0.98650217,-0.06243954,1.7492615,-3.21350098,-1.67963481,-29.05583191,17.86027527,-100.1169205,-0.45400283,0.05401747,-0.30128476,0.99998868,0.00396066,-0.0004818,0.00262731,-0.00292366,0.00520887,-0.00936533,0,0,0,0,1,2
1,1.24,120,0.10815274,-0.99994379,0.0174542,0.58521336,-1.19605207,0.11596847,-41.94680023,2.3384974,-109.7632294,-3.13660312,-4.95880747,6.79495192,0.99700457,0.02473218,0.04478844,-0.05800284,-0.03448674,-0.00073951,0.00829966,0,0,0,0,1,2
2,1.24,122,0.05883187,-0.99003088,-0.01213423,1.12120795,0.89408439,0.78057069,-50.19000244,-16.10640144,-86.40748596,-0.81090301,2.15766883,13.09623909,0.99326026,0.00917605,-0.01789797,-0.11414687,0.02124563,0.00156979,-0.00755359,0,0,0,0,1,2
4,1.24,120,-0.06735207,-0.99319226,-0.06448722,1.55664766,-2.95524788,-1.52024949,-28.55890083,17.04179955,-100.3800049,-0.42411429,0.06778455,-0.32889166,0.99998891,0.00369937,-0.00060215,0.00286791,-0.00083889,0.00318077,-0.0024221,0,0,0,0,1,2
1,1.25,121,0.10116457,-0.99708444,0.02012944,1.47537827,-0.59447569,-0.33574301,-41.80064392,2.77696586,-109.4416809,-3.12223887,-4.95546484,6.78677273,0.99701297,0.02461215,0.04475034,-0.05793815,-0.02797469,0.00194404,0.00455159,0,0,0,0,1,2
2,1.25,123,0.05926173,-0.990906,-0.01099747,1.35180795,0.20471638,0.6650967,-50.19000244,-16.10640144,-86.40748596,-0.79725784,2.15103674,13.09779739,0.99326098,0.00905143,-0.01785395,-0.11415797,0.02073177,0.00248162,-0.00666798,0,0,0,0,1,2
4,1.25,121,-0.06991106,-0.99771595,-0.07004537,1.25782073,-3.26805305,-1.47420537,-29.11429405,16.42794418,-100.5553894,-0.40928841,0.08028679,-0.36153176,0.99998844,0.00356948,-0.00071189,0.00315243,0.00160778,-0.00251413,0.00259156,0,0,0,0,1,2
1,1.26,122,0.0884629,-0.99811679,0.02438997,2.23275471,0.63117486,-0.86731642,-42.20988083,1.95849168,-108.8278275,-3.09934258,-4.94710779,6.78962135,0.99701953,0.02441623,0.04466667,-0.05797403,-0.015109,0.00577367,0.00382631,0,0,0,0,1,2
2,1.26,124,0.06303759,-0.99325037,-0.01110868,1.59881866,-0.77409506,0.37125981,-50.3946228,-16.51563835,-86.40748596,-0.78192425,2.14721107,13.08941936,0.99327111,0.00891341,-0.01783671,-0.11408281,0.01697146,0.00211435,-0.00417128,0,0,0,0,1,2
4,1.26,122,-0.07083704,-1.00236583,-0.07288394,1.77150822,-3.64863682,-1.42525518,-28.99736977,18.06489372,-100.847702,-0.38907689,0.09205945,-0.39758697,0.99998796,0.00339252,-0.00081514,0.00346684,0.00240561,-0.00537588,0.00745501,0,0,0,0,1,2
1,1.27,123,0.07758497,-0.99771541,0.03086208,2.65149403,1.64418209,-1.19655168,-42.00526047,2.66004086,-109.7924576,-2.91701317,-4.91982603,6.80413389,0.99705958,0.02283854,0.04433991,-0.05817795,-0.00411057,0.01112575,0.00208508,0,0,0,0,1,2
2,1.27,125,0.06593971,-0.99423075,-0.00349511,1.77565002,-1.30596054,0.17083354,-50.62847137,-16.3110199,-86.2028656,-0.76525569,2.14532399,13.07562923,0.99328655,0.00876491,-0.01783801,-0.11396062,0.01406893,0.00943974,-0.00306941,0,0,0,0,1,2
4,1.27,123,-0.07519028,-1.00563824,-0.07299378,2.8519845,-4.23674297,-1.28974652,-29.26045036,17.97719955,-100.6430893,-0.35770211,0.10211074,-0.43863589,0.99998748,0.0031181,-0.00090302,0.00382501,0.00670715,-0.00575739,0.01101983,0,0,0,0,1,2
1,1.28,124,0.06822599,-0.99738985,0.03291428,2.19486451,2.45574474,-1.42275631,-42.00526047,2.66004086,-109.7924576,-2.89309549,-4.90633678,6.82526541,0.99705845,0.02262939,0.04421458,-0.05837433,0.00553263,0.01074485,0.00025885,0,0,0,0,1,2
2,1.28,126,0.07380633,-0.99314195,-0.00562944,1.79207206,-1.63025343,0.0095374,-50.97924423,-16.57410049,-86.31978607,-0.68230921,2.11455989,13.05842018,0.99331486,0.00801274,-0.01765502,-0.11379749,0.00601929,0.00673031,-0.00383475,0,0,0,0,1,2
4,1.28,124,-0.08076484,-1.0112946,-0.06937825,3.47237706,-4.39260817,-1.15000582,-29.26045036,17.97719955,-100.6430893,-0.32005087,0.11069038,-0.48070049,0.99998689,0.00278889,-0.00097766,0.00419217,0.0120525,-0.0024314,0.01681827,0,0,0,0,1,2
1,1.29,125,0.05749841,-0.999394,0.02789399,1.63831449,2.62311125,-1.53347635,-41.97602844,1.90002918,-109.9093857,-2.87461233,-4.89174175,6.84897804,0.99705523,0.02246715,0.04408284,-0.05859129,0.01663655,0.00523319,0.00012674,0,0,0,0,1,2
2,1.29,127,0.07520027,-0.99380004,-0.00722132,2.14830422,-2.2180984,-0.07113945,-50.48231506,-16.36948204,-85.93978119,-0.66265881,2.11501145,13.03532314,0.99333906,0.00783929,-0.01768003,-0.11359425,0.00425311,0.00395016,-0.00314814,0,0,0,0,1,2
4,1.29,125,-0.09060446,-1.01475847,-0.06515063,4.11205149,-4.04756784,-0.81146759,-28.82198143,18.06489372,-100.4092331,-0.25065166,-0.15213922,-0.56686747,0.9999845,0.00219388,0.00131682,0.00494972,0.02059408,0.00115834,0.02069277,0,0,0,0,1,2
1,1.3,126,0.04938426,-1.00218928,0.02620947,0.99868804,2.19854569,-1.45772684,-41.42063522,2.92312193,-109.4416809,-2.86284852,-4.87776089,6.86948204,0.99705207,0.02236434,0.0439592,-0.05877758,0.02531643,0.00309888,0.0014348,0,0,0,0,1,2
2,1.3,128,0.07764748,-0.99500489,-0.00518771,2.44946647,-3.09510517,-0.31192788,-50.48231506,-16.36948204,-85.93978119,-0.64068902,2.11778283,13.00329208,0.99337178,0.00764663,-0.01772797,-0.11331327,0.00189323,0.00561452,-0.00184172,0,0,0,0,1,2
4,1.3,126,-0.10169459,-1.01291513,-0.05992597,3.58543038,-3.13328958,-0.43528917,-29.14352417,18.35720444,-100.5846252,-0.2126109,-0.14979775,-0.59584147,0.99998397,0.00186215,0.00129756,0.00520208,0.02835587,0.0052059,0.01930927,0,0,0,0,1,2
1,1.31,127,0.05227133,-1.00083506,0.02596942,-0.03411939,1.59539306,-1.1087811,-42.09295654,2.54311609,-109.2078323,-2.86187553,-4.86704779,6.88558149,0.99704778,0.02235541,0.04386863,-0.05892059,0.02245783,0.00287292,0.00052086,0,0,0,0,1,2
2,1.31,129,0.08283281,-0.99669415,-0.00456635,2.53695583,-3.33086801,-0.61276728,-50.74539566,-16.19409561,-86.37825012,-0.61805731,2.1235497,12.96884823,0.9934063,0.00745078,-0.01780258,-0.11301135,-0.00313456,0.00585032,0.00006673,0,0,0,0,1,2
4,1.31,127,-0.10627814,-1.0096482,-0.05190194,2.52855182,-2.23704886,-0.09670587,-28.96813774,18.59105492,-100.3215408,-0.1857796,-0.150245,-0.61641091,0.99998343,0.00162826,0.00130239,0.00538129,0.03319718,0.01246739,0.01588991,0,0,0,0,1,2
1,1.32,128,0.05822698,-1.00097692,0.0237825,-0.02964109,1.07382476,-0.73010999,-41.91756821,2.952353,-109.6463013,-2.87880754,-5.01822376,6.88994598,0.9969874,0.02242045,0.04519334,-0.05891562,0.01603349,0.00075517,0.00150099,0,0,0,0,1,2
2,1.32,130,0.09618227,-1.00122797,-0.00498977,2.91250229,-3.45535064,-0.60080457,-49.42998886,-16.36948204,-85.67670441,-0.59176302,2.12919664,12.93299675,0.99344242,0.0072228,-0.01787973,-0.1126966,-0.0161707,0.00498544,0.00516617,0,0,0,0,1,2
4,1.32,128,-0.1053242,-1.0061388,-0.04969793,0.72763401,-0.94291437,0.13992134,-28.88044357,18.09412384,-100.5261612,-0.17784443,-0.15224218,-0.62521213,0.99998307,0.00155921,0.00132007,0.00545803,0.0324725,0.01419028,0.01219561,0,0,0,0,1,2
1,1.33,129,0.06667431,-1.0024482,0.0241653,0.39218795,0.07049725,-0.25120968,-41.91756821,2.952353,-109.6463013,-2.87481165,-5.01576138,6.89007378,0.99698907,0.02238695,0.0451699,-0.05891891,0.00594521,0.00121072,0.00450101,0,0,0,0,1,2
2,1.33,131,0.09970583,-1.00095165,-0.00857583,2.87359691,-4.83324194,-0.65157652,-51.21309662,-16.22332573,-86.05670929,-0.56578761,2.33614445,12.87522125,0.99346471,0.00719085,-0.01970303,-0.11219656,-0.01873091,0.00093498,0.00507184,0,0,0,0,1,2
4,1.33,129,-0.10297687,-1.00402153,-0.05369765,-0.98488355,0.07447863,0.33807585,-28.85121346,18.29874229,-100.6138535,-0.18773435,-0.15557101,-0.62493747,0.99998295,0.00164567,0.00134866,0.00545579,0.03021036,0.010132,0.01016521,0,0,0,0,1,2
1,1.34,130,0.07743178,-1.00191557,0.02746726,0.39067262,-1.40687966,0.16159576,-42.15141678,1.25694239,-108.8570557,-2.87194037,-5.01707935,6.87547779,0.99699664,0.02236702,0.04517704,-0.05879273,-0.00472547,0.00446507,0.00591991,0,0,0,0,1,2
2,1.34,132,0.09075068,-1.00262034,-0.00396059,2.24594522,-5.58667803,-0.61873376,-51.35925293,-16.07716942,-85.93978119,-0.54805195,2.34180999,12.81833553,0.99352038,0.00703281,-0.01977301,-0.11170045,-0.00697814,0.00519383,0.00646182,0,0,0,0,1,2
4,1.34,130,-0.09487917,-0.9988308,-0.0583163,-2.07852554,1.07528746,0.59112036,-28.85121346,18.29874229,-100.6138535,-0.17333876,-0.35414714,-0.64759868,0.99997813,0.0015301,0.00308191,0.00565597,0.02155268,0.00535772,0.00471643,0,0,0,0,1,2
1,1.35,131,0.08022889,-0.99651247,0.03049748,0.68844062,-2.41146207,0.41651276,-42.03449249,1.69541073,-109.2955246,-2.86682582,-5.02073717,6.85039759,0.99700916,0.02233047,0.04520135,-0.05857565,-0.00835817,0.00782579,0.00126352,0,0,0,0,1,2
2,1.35,133,0.07433049,-1.00319898,0.00864215,2.22937059,-4.9311285,-0.62830812,-51.35925293,-16.07716942,-85.93978119,-0.52994227,2.34764814,12.76802349,0.99356931,0.00687277,-0.0198443,-0.11126122,0.0095487,0.01747032,0.00634536,0,0,0,0,1,2
4,1.35,131,-0.08552994,-0.99300963,-0.06245388,-2.78373837,1.66160059,0.77031434,-28.82198143,18.29874229,-100.6138535,-0.20238848,-0.36078045,-0.63250148,0.99997824,0.00178351,0.0031386,0.00552511,0.00997519,0.00086859,-0.00146868,0,0,0,0,1,2
1,1.36,132,0.08098778,-0.99981159,0.02996932,1.56557405,-3.79131556,0.3764798,-42.12218475,1.7831043,-110.0555344,-2.85390043,-5.02373552,6.81025314,0.99703091,0.02223226,0.04521304,-0.05823074,-0.00865186,0.00688296,0.0045915,0,0,0,0,1,2
2,1.36,134,0.06449436,-1.00274527,0.00632108,1.6050328,-3.85480547,-0.69628334,-50.62847137,-16.34025192,-85.50131226,-0.51717234,2.35427237,12.72873116,0.99360698,0.00676164,-0.01991645,-0.11091845,0.01947013,0.0149019,0.00547276,0,0,0,0,1,2
4,1.36,132,-0.07795898,-0.9894644,-0.0641357,-2.92416525,1.83388519,0.85913044,-28.52966881,17.07103157,-99.76615143,-0.23298334,-0.36819094,-0.61571085,0.9999783,0.00205039,0.00320209,0.00537956,0.00253322,-0.00048803,-0.00542085,0,0,0,0,1,2
1,1.37,133,0.07551593,-1.01013803,0.03161626,1.52365541,-4.67792082,0.27504164,-42.12218475,2.42619109,-109.4416809,-2.74253392,-4.99700069,6.75235796,0.99709123,0.02130006,0.04491308,-0.05777708,-0.00150913,0.00711643,0.01396827,0,0,0,0,1,2
2,1.37,135,0.06090797,-0.99937057,0.00705398,1.32085252,-2.67817879,-0.7667433,-51.06694031,-15.90178299,-85.93978119,-0.50624239,2.36170816,12.70132542,0.99363279,0.00666927,-0.0199931,-0.11067905,0.02303293,0.01543172,0.00195132,0,0,0,0,1,2
4,1.37,133,-0.07390282,-0.98840982,-0.06335808,-2.94155478,1.59145582,0.83804405,-28.61736298,17.7725811,-100.8769379,-0.26355997,-0.37553674,-0.60137212,0.99997824,0.00231715,0.00326505,0.00525543,-0.00156344,0.00076339,-0.00679634,0,0,0,0,1,2
1,1.38,134,0.07059328,-1.01166081,0.03620969,1.28506482,-5.54937077,0.0891602,-42.12218475,2.42619109,-109.4416809,-2.73370767,-4.99657011,6.6953063,0.99712175,0.02124584,0.04489431,-0.05728421,0.00401244,0.01012438,0.01491134,0,0,0,0,1,2
2,1.38,136,0.05879105,-0.99712992,0.00952207,1.17857683,-1.91505551,-0.91351533,-51.3300209,-15.52177715,-86.72902679,-0.33763617,2.09125018,12.7095499,0.99367982,0.00494766,-0.01781031,-0.11071898,0.02397238,0.01702477,-0.00042483,0,0,0,0,1,2
4,1.38,134,-0.0741668,-0.98927164,-0.06662428,-2.76371789,1.46996593,0.90662622,-28.646595,18.62028694,-100.3215408,-0.29228786,-0.38363886,-0.58807176,0.99997795,0.00256782,0.00333473,0.00514036,-0.0015093,-0.00193315,-0.0057201,0,0,0,0,1,2
1,1.39,135,0.06767649,-1.01148152,0.0398969,1.26743054,-5.47989511,-0.11573409,-41.71294785,2.89389062,-109.5293732,-2.72496653,-4.99410009,6.6390233,0.99715227,0.02119309,0.04485805,-0.05679845,0.00693641,0.01366657,0.01452612,0,0,0,0,1,2
2,1.39,137,0.05975328,-0.99449772,0.00476963,0.94820261,-0.87869424,-0.89882034,-50.95001221,-16.3110199,-86.2028656,-0.32887855,2.10018826,12.70031643,0.99368769,0.0048789,-0.01789667,-0.11063761,0.01940788,0.01004685,-0.00316819,0,0,0,0,1,2
4,1.39,135,-0.07617936,-0.99108106,-0.06725422,-2.25345492,1.437379,0.76952505,-28.646595,18.62028694,-100.3215408,-0.32941702,-0.39631802,-0.57342118,0.99997741,0.00289195,0.00344408,0.00501391,0.000213,-0.00195455,-0.00373707,0,0,0,0,1,2
1,1.4,136,0.06369644,-1.00723231,0.03672489,1.31720531,-4.99243021,-0.51336765,-42.1806488,2.36772871,-109.7047653,-2.71535039,-4.9877739,6.58758688,0.99718177,0.02113277,0.04478876,-0.05635606,0.01024067,0.01065243,0.00946657,0,0,0,0,1,2
2,1.4,138,0.06438829,-0.99309158,0.00307667,0.85895985,-0.49603066,-1.01569235,-50.95001221,-16.3110199,-86.2028656,-0.32069197,2.11031747,12.69493198,0.99369162,0.00481684,-0.01799264,-0.11058971,0.01487785,0.00819871,-0.00437076,0,0,0,0,1,2
4,1.4,136,-0.07629459,-0.99387437,-0.0622299,-1.77952993,1.76866591,0.62029475,-28.82198143,18.47413063,-99.85384369,-0.34853217,-0.40134579,-0.55664337,0.99997741,0.00305847,0.00348756,0.00486821,-0.00002024,0.00378166,-0.0012454,0,0,0,0,1,2
1,1.41,137,0.05427593,-1.0093832,0.03671065,1.38484573,-4.53958273,-0.82591665,-42.06372452,2.83542824,-109.6755295,-2.70470238,-4.97843838,6.54060698,0.99721014,0.02106319,0.04469366,-0.05595351,0.02001823,0.01029999,0.01006558,0,0,0,0,1,2
2,1.41,139,0.0678259,-0.99274087,-0.00572226,0.96537149,-0.3711035,-1.26005304,-51.47617722,-16.57410049,-85.5305481,-0.31136736,2.12289691,12.69074726,0.99369401,0.00474745,-0.0181109,-0.11055203,0.01163443,-0.00074244,-0.0045719,0,0,0,0,1,2
4,1.41,137,-0.07738722,-0.99409652,-0.06162246,-1.69224644,2.13277078,0.60876518,-29.11429405,18.32797432,-100.2923126,-0.3670741,-0.40601137,-0.53617865,0.99997759,0.00321984,0.00352806,0.00469032,0.00097431,0.00471485,-0.00098238,0,0,0,0,1,2
1,1.42,138,0.04257659,-1.01115894,0.03793389,1.34525406,-4.14019012,-1.05312395,-41.97602844,2.71850324,-110.2016907,-2.57096171,-5.35449362,6.49326992,0.99711365,0.01972883,0.04789219,-0.05551188,0.0303695,0.01066317,0.01014419,0,0,0,0,1,2
2,1.42,140,0.06799926,-0.99407226,-0.00683505,1.10684896,-0.78273129,-1.4237262,-51.09616852,-15.87255192,-85.64746857,-0.30094972,2.13709378,12.68238163,0.99370015,0.00466946,-0.0182444,-0.11047791,0.01175793,-0.00203088,-0.00322699,0,0,0,0,1,2
4,1.42,138,-0.07855926,-0.9929477,-0.06815565,-1.95598698,2.04510427,0.67572278,-28.7927494,18.35720444,-100.0876923,-0.38819012,-0.41140133,-0.51672536,0.99997765,0.00340372,0.00357481,0.00452137,0.00210789,-0.00152537,-0.00164904,0,0,0,0,1,2
1,1.43,139,0.03725925,-1.00958157,0.03862838,0.70715731,-3.20924807,-1.11788297,-41.97602844,2.71850324,-110.2016907,-2.56590128,-5.34245253,6.46063232,0.99713504,0.01970446,0.04777937,-0.05523262,0.03053566,0.0097142,0.0081523,0,0,0,0,1,2
2,1.43,141,0.07279636,-0.99006706,-0.00200044,1.08934474,-0.27968937,-1.55743027,-51.24232483,-15.84332085,-86.81671906,-0.26257288,2.11744809,12.6817646,0.99370545,0.00431765,-0.01811106,-0.11046639,0.0068985,0.00249328,-0.00701855,0,0,0,0,1,2
4,1.43,139,-0.07447384,-0.9932124,-0.07248995,-1.77752686,1.9751718,0.79723066,-28.61736298,18.21105003,-100.2630768,-0.407455,-0.41803119,-0.49776772,0.99997753,0.0035715,0.0036325,0.00435674,-0.0021118,-0.00547404,-0.0014053,0,0,0,0,1,2
1,1.44,140,0.03795945,-1.00250876,0.03536683,0.07351893,-1.21828902,-1.17834067,-41.44986725,2.68927217,-109.558609,-2.56586218,-5.33033371,6.44876099,0.99714559,0.01971512,0.04767187,-0.05513197,0.02889408,0.00695246,0.0010446,0,0,0,0,1,2
2,1.44,142,0.07754517,-0.9883281,-0.00562887,0.83780414,-0.290126,-1.76457226,-51.09616852,-17.88950539,-85.64746857,-0.25445795,2.13508153,12.67843246,0.99370611,0.00426373,-0.01827191,-0.11043625,0.00191754,-0.00165283,-0.00856335,0,0,0,0,1,2
4,1.44,140,-0.07185848,-0.99286538,-0.07319131,-1.29785323,1.78411853,0.97053671,-27.94504547,18.12335587,-100.8184738,-0.4842672,-0.37279415,-0.46472275,0.99997759,0.00423915,0.00323604,0.00406915,-0.00459949,-0.00564675,-0.00188681,0,0,0,0,1,2
1,1.45,141,0.04187942,-1.0008471,0.03155883,0.18570253,1.23310816,-1.17564929,-41.91756821,2.63080978,-109.5878372,-2.56306958,-5.31894827,6.46100855,0.99714458,0.01969142,0.04757356,-0.05524218,0.02492315,0.00324631,-0.00026243,0,0,0,0,1,2
2,1.45,143,0.08083677,-0.9940182,-0.0026376,1.33755922,-0.77661192,-1.81064701,-51.09616852,-17.88950539,-85.64746857,-0.24174422,2.15315628,12.67002487,0.99371177,0.00416954,-0.01844121,-0.11036132,-0.00081537,0.0011456,-0.00272542,0,0,0,0,1,2
4,1.45,141,-0.07273959,-0.98970616,-0.0721027,-0.87041342,1.47142243,1.17654407,-27.94504547,18.12335587,-100.8184738,-0.49411467,-0.38352254,-0.44986388,0.99997735,0.00432503,0.00332987,0.00394017,-0.00296789,-0.00372792,-0.00503251,0,0,0,0,1,2
1,1.46,142,0.04549484,-1.00317931,0.03014838,0.24156691,2.45006418,-1.11407888,-41.82987213,2.86465931,-109.7924576,-2.55890179,-5.30853128,6.48521137,0.99713773,0.01965033,0.04748506,-0.05545678,0.02189257,0.00160528,0.00248726,0,0,0,0,1,2
2,1.46,144,0.08339559,-0.99537796,-0.00266831,1.56767046,-1.53342772,-1.99682069,-51.12540054,-15.96024513,-85.82286072,-0.22734386,2.17306709,12.65395451,0.99372435,0.00406121,-0.01862831,-0.11021961,-0.00298151,0.0008779,-0.00124602,0,0,0,0,1,2
4,1.46,142,-0.07309678,-0.98610646,-0.07001711,-0.62089741,1.43599319,1.33367848,-29.11429405,18.29874229,-100.1753845,-0.50145179,-0.39583245,-0.43508688,0.99997723,0.00438903,0.00343761,0.0038119,-0.00255642,-0.00172177,-0.00871507,0,0,0,0,1,2
1,1.47,143,0.05427666,-1.00271201,0.02828657,-0.13963531,2.84524632,-1.07937515,-42.26834106,1.25694239,-109.5878372,-2.58372426,-5.38874245,6.53030682,0.99707985,0.01980708,0.04820276,-0.0558213,0.01290873,-0.00014203,0.00331338,0,0,0,0,1,2
2,1.47,145,0.09219563,-0.99286449,-0.00205544,2.19091463,-2.3961525,-2.24091268,-50.68693161,-16.54487038,-85.32592773,-0.20743448,2.19539523,12.62899017,0.99374533,0.00390591,-0.01884194,-0.10999984,-0.01150869,0.00117952,-0.0033676,0,0,0,0,1,2
4,1.47,143,-0.07317767,-0.98528486,-0.0682326,-0.40826839,1.67823339,1.42524111,-28.88044357,18.21105003,-100.6138535,-0.50687981,-0.40889311,-0.41768888,0.99997723,0.00443629,0.00355208,0.00366074,-0.00263752,0.00011215,-0.00963247,0,0,0,0,1,2
1,1.48,144,0.06360489,-1.00315702,0.02250378,-0.28388792,2.87822533,-0.97327989,-42.26834106,1.25694239,-109.5878372,-2.58460116,-5.37980843,6.55955505,0.99706894,0.01980695,0.04813051,-0.05607738,0.00269064,-0.00560668,0.00492905,0,0,0,0,1,2
2,1.48,146,0.1004238,-0.98805231,0.00496176,2.34943724,-3.08261299,-2.4604404,-51.06694031,-16.74948883,-85.67670441,-0.13175651,2.46550393,12.56019115,0.99376565,0.00349601,-0.02125905,-0.10938817,-0.01845083,0.00760038,-0.00776234,0,0,0,0,1,2
4,1.48,144,-0.07542073,-0.98784178,-0.07164484,-0.21309979,1.36662769,1.43891621,-28.3835125,18.29874229,-100,-0.51011974,-0.4223063,-0.40323651,0.99997711,0.00446453,0.00366958,0.00353524,-0.00082422,-0.00306381,-0.00672298,0,0,0,0,1,2
1,1.49,145,0.06831466,-1.00233555,0.01771753,-0.60092467,2.54452872,-1.15611434,-41.59602356,2.60157847,-109.5293732,-2.58885503,-5.36892891,6.58604956,0.99705952,0.01983838,0.04804252,-0.05630852,-0.00196924,-0.01027424,0.00451096,0,0,0,0,1,2
2,1.49,147,0.09765266,-0.98746979,-0.00053638,2.45520544,-3.45943832,-2.62331843,-51.15463257,-16.25255775,-85.41362,-0.11024801,2.49168205,12.52450275,0.99379534,0.00332776,-0.02150764,-0.10907435,-0.01204439,0.00101082,-0.00831851,0,0,0,0,1,2
4,1.49,145,-0.07697703,-0.98992008,-0.07245702,-0.09182345,1.09133303,1.22677934,-28.99736977,18.41566849,-100.4384689,-0.57005996,-0.46109,-0.38951173,0.99997377,0.0049883,0.00400678,0.00341907,0.0002466,-0.00344702,-0.0044912,0,0,0,0,1,2
1,1.5,146,0.07342135,-0.99616426,0.02070888,-0.55767334,1.98904693,-1.22873902,-41.30371094,1.40309846,-110.0263062,-2.5930264,-5.35716486,6.60698748,0.99705315,0.01987191,0.04794586,-0.05649154,-0.00775471,-0.00675697,-0.00055421,0,0,0,0,1,2
2,1.5,148,0.0847744,-0.98949921,0.00081366,2.6345048,-3.7237637,-2.43611336,-51.15463257,-16.25255775,-85.41362,-0.08718534,2.51599669,12.48610973,0.99382788,0.00314361,-0.02174152,-0.10873671,0.00135225,0.00196775,-0.0068223,0,0,0,0,1,2
4,1.5,146,-0.079391,-0.98906529,-0.07329985,0.69924313,0.85262966,0.93149626,-28.99736977,18.41566849,-100.4384689,-0.56379563,-0.46978164,-0.37988731,0.99997395,0.00493355,0.00408322,0.00333524,0.00218337,-0.00363009,-0.00511323,0,0,0,0,1,2
1,1.51,147,0.08047075,-0.99879378,0.02246317,-0.1360745,1.177194,-1.14066565,-41.18678665,2.57234716,-109.8801498,-2.59351611,-5.34608364,6.61917782,0.99705148,0.01987675,0.04785182,-0.05659985,-0.01407908,-0.00516155,0.00326451,0,0,0,0,1,2
2,1.51,149,0.08332081,-0.98995262,0.01609125,2.76192236,-3.35169888,-2.15346193,-51.15463257,-17.01256943,-85.55977631,-0.06255349,2.53750396,12.45138836,0.99385732,0.00294373,-0.02195231,-0.10843055,0.00321156,0.01682995,-0.00640703,0,0,0,0,1,2
4,1.51,147,-0.08303908,-0.98743093,-0.07165999,1.93111432,0.94390464,0.64326358,-28.73428726,17.94796753,-100.7015457,-0.54531288,-0.47552398,-0.36869958,0.99997485,0.00477202,0.00413434,0.00323719,0.0058212,-0.00233846,-0.00658733,0,0,0,0,1,2
1,1.52,148,0.0839952,-1.00228441,0.02603787,0.18192928,-0.00089752,-0.90957296,-41.53756332,2.07541656,-109.0909042,-2.59655213,-5.13974237,6.60785246,0.99713641,0.0200134,0.04605613,-0.05654547,-0.01593543,-0.00184944,0.00742392,0,0,0,0,1,2
2,1.52,150,0.08454882,-0.99845034,0.01073979,2.53170705,-2.28123856,-2.12088919,-50.920784,-16.60333252,-85.41362,-0.03930989,2.55870438,12.42748356,0.9938764,0.00275757,-0.02215875,-0.10821839,0.00271866,0.0110464,0.00214866,0,0,0,0,1,2
4,1.52,148,-0.08528807,-0.9835273,-0.06990358,2.45695806,1.08555639,0.38714695,-28.85121346,17.88950539,-100.2630768,-0.52168524,-0.47861591,-0.35591832,0.99997604,0.00456546,0.0041625,0.00312492,0.00827327,-0.00120861,-0.010427,0,0,0,0,1,2
1,1.53,149,0.08393458,-1.00177121,0.02646926,0.54984885,-0.83078283,-0.78715837,-41.53756332,2.07541656,-109.0909042,-2.59154844,-5.13167858,6.5989542,0.9971447,0.01997755,0.04598194,-0.05647182,-0.0132338,-0.00136798,0.00669104,0,0,0,0,1,2
2,1.53,151,0.08175817,-1.00429738,0.00556585,2.30160499,-1.68105733,-1.86665082,-51.03770828,-17.56796265,-85.41362,0.06258508,2.52765036,12.42457867,0.99388719,0.00184393,-0.02198568,-0.10817423,0.00588839,0.00514372,0.00787425,0,0,0,0,1,2
4,1.53,149,-0.08528377,-0.98262709,-0.07368591,2.91125679,1.19298053,0.06063683,-28.76351929,16.74948883,-100.2338486,-0.49359286,-0.4783794,-0.34198278,0.99997753,0.0043198,0.00416172,0.00300229,0.00830121,-0.00549722,-0.01110034,0,0,0,0,1,2
1,1.54,150,0.08350977,-1.00041902,0.02976041,1.0059793,-1.52055645,-0.74675834,-41.5083313,2.3384974,-109.3832169,-2.58247614,-5.12385845,6.58248425,0.99715734,0.01990919,0.04590657,-0.05633385,-0.0128568,0.00187988,0.00551026,0,0,0,0,1,2
2,1.54,152,0.08719411,-1.00186753,0.00473473,1.73162484,-1.25200391,-1.52337801,-51.03770828,-17.56796265,-85.41362,0.07876752,2.54290795,12.41133881,0.99389696,0.00171542,-0.02213349,-0.10805589,-0.00000912,0.00293798,0.005663,0,0,0,0,1,2
4,1.54,150,-0.08418376,-0.97873712,-0.07698858,3.47420502,1.29908383,-0.07414044,-28.88044357,18.06489372,-100.2338486,-0.56225419,-0.55405056,-0.32797006,0.99997211,0.00492033,0.00482086,0.00288573,0.00714125,-0.00913043,-0.01484929,0,0,0,0,1,2
1,1.55,151,0.08451407,-0.99684936,0.0377582,0.86124098,-2.77327228,-0.84356463,-41.12832642,1.2277112,-109.3539887,-2.5757122,-5.1147027,6.55385685,0.99717605,0.01986644,0.04581862,-0.05608945,-0.01417323,0.00997518,0.00270935,0,0,0,0,1,2
2,1.55,153,0.09363498,-0.99835777,-0.00360164,1.21614397,-0.35729045,-1.21016073,-51.38848114,-16.86641312,-85.47208405,0.09058414,2.55501723,12.40727139,0.99389863,0.00162357,-0.02224972,-0.108018,-0.00635941,-0.00562642,0.00243821,0,0,0,0,1,2
4,1.55,151,-0.08322615,-0.97677326,-0.07457167,3.93298054,1.02331102,-0.14558157,-28.67582512,18.21105003,-100.4384689,-0.52383995,-0.55185431,-0.31515002,0.99997419,0.00458452,0.00480318,0.00277215,0.00535599,-0.00613453,-0.01700177,0,0,0,0,1,2
1,1.56,152,0.07947048,-0.99410671,0.03840984,0.97388387,-3.04972076,-1.14864349,-41.85910416,2.4554224,-109.5878372,-2.56799889,-5.10242414,6.52239609,0.99719739,0.0198181,0.04570257,-0.05582143,-0.00942898,0.01070441,-0.00076867,0,0,0,0,1,2
2,1.56,154,0.09485373,-0.99508411,-0.00622291,0.7525273,-0.42947358,-0.85646278,-51.41771317,-16.72025681,-84.74130249,0.09770436,2.56359196,12.40267467,0.99390149,0.001569,-0.02233087,-0.10797651,-0.00755217,-0.00840325,-0.00077417,0,0,0,0,1,2
4,1.56,152,-0.08350051,-0.97753215,-0.07012333,4.79898071,0.4881618,-0.18416111,-28.67582512,18.21105003,-100.4384689,-0.47636941,-0.54965001,-0.30708492,0.99997622,0.00416989,0.00478538,0.0026997,0.00563462,-0.00242216,-0.01650201,0,0,0,0,1,2
1,1.57,153,0.06737446,-1.00218225,0.03717748,0.53416622,-2.16847134,-1.35511875,-42.06372452,2.04618526,-109.2370606,-2.48504496,-5.18048286,6.4890523,0.99719799,0.01907033,0.04633581,-0.05554786,0.00361233,0.00843749,0.00516696,0,0,0,0,1,2
2,1.57,155,0.09252986,-0.99820888,-0.00505039,0.7708987,-0.8493312,-0.58196741,-51.15463257,-16.74948883,-84.62437439,0.10464457,2.56943226,12.39386749,0.9939087,0.00151259,-0.02238817,-0.10789859,-0.00497631,-0.00735319,0.00225455,0,0,0,0,1,2
4,1.57,153,-0.08265366,-0.98083889,-0.06718806,5.3466053,0.29875907,-0.20173147,-28.96813774,18.73721123,-100.3800049,-0.42330068,-0.54740357,-0.30053732,0.99997836,0.00370646,0.00476724,0.00264028,0.00461124,-0.00017995,-0.01345227,0,0,0,0,1,2
1,1.58,154,0.0568295,-1.00603461,0.0398319,-0.0483878,-1.28883028,-1.62976289,-42.23910904,2.16311026,-109.5878372,-2.48627949,-5.16380501,6.47682238,0.99721003,0.01909437,0.04618924,-0.05544445,0.01373737,0.00976653,0.00751217,0,0,0,0,1,2
2,1.58,156,0.08247079,-0.99911427,-0.00205621,0.50278157,-0.96977931,-0.47563127,-51.18386459,-16.80795097,-85.23823547,0.06936587,2.49152422,12.39730835,0.99391979,0.00174585,-0.02167916,-0.10793735,0.00484448,-0.00427532,0.00271886,0,0,0,0,1,2
4,1.58,154,-0.08390407,-0.98376834,-0.06337148,5.5957303,0.33276382,-0.0609473,-28.85121346,18.0356617,-100.3215408,-0.36776969,-0.54654568,-0.2933768,0.99998021,0.00322155,0.00476123,0.00257546,0.00569554,0.00285321,-0.01068499,0,0,0,0,1,2
1,1.59,155,0.06178143,-1.01107919,0.03942008,0.08490934,-0.470514,-1.70450902,-42.23910904,2.16311026,-109.5878372,-2.48561668,-5.14663315,6.47251797,0.99721885,0.01909893,0.04603879,-0.05541088,0.00994178,0.00899474,0.01321026,0,0,0,0,1,2
2,1.59,157,0.07083291,-0.99700743,0.00056639,0.23631334,-0.27970782,-0.37723991,-51.18386459,-16.80795097,-85.23823547,0.07149059,2.49530029,12.39442062,0.99392188,0.00173043,-0.02171396,-0.10791181,0.0153681,-0.00119308,0.0000722,0,0,0,0,1,2
4,1.59,155,-0.08518991,-0.98750144,-0.06049211,5.94907713,0.6101914,-0.00294976,-28.61736298,17.80181122,-100.6723175,-0.24496186,-0.6055969,-0.30475456,0.99998021,0.00215171,0.00527909,0.00267074,0.00648154,0.00466151,-0.00705692,0,0,0,0,1,2
1,1.6,156,0.07612402,-1.01062226,0.03661425,-0.0779149,1.1263237,-1.81760931,-42.00526047,2.48465347,-109.2370606,-2.48544025,-5.1287961,6.48431826,0.99721992,0.0191016,0.04588547,-0.05551741,-0.00401729,0.00622641,0.01481118,0,0,0,0,1,2
2,1.6,158,0.0646421,-0.99491358,0.00632144,0.04191346,0.56409067,-0.24285893,-51.24232483,-16.13563347,-85.47208405,0.0723985,2.49772024,12.40004826,0.99391609,0.0017259,-0.02173572,-0.10796037,0.02151738,0.00454993,-0.00227915,0,0,0,0,1,2
4,1.6,156,-0.0878069,-0.99514198,-0.06166115,6.28274918,0.80220932,-0.10278157,-28.44197655,18.32797432,-100.3215408,-0.18295339,-0.60404229,-0.29247561,0.99998164,0.00161,0.00526714,0.0025607,0.00779839,0.0020587,0.00080228,0,0,0,0,1,2
1,1.61,157,0.08584847,-1.00435805,0.02732081,-0.09300614,2.41219258,-2.02974248,-41.85910416,2.4554224,-108.9447556,-2.48449111,-5.1092248,6.5089488,0.99721557,0.01909333,0.04571882,-0.05573626,-0.01439388,-0.00259381,0.00949219,0,0,0,0,1,2
2,1.61,159,0.07631917,-0.99380028,0.00963022,0.29247567,1.08340788,-0.44917101,-50.59923935,-17.01256943,-84.56591797,0.07623228,2.50219297,12.41076851,0.99390525,0.0016989,-0.02177797,-0.10805252,0.00986275,0.00780607,-0.00288781,0,0,0,0,1,2
4,1.61,157,-0.0877334,-1.0000186,-0.06546967,6.13887596,0.87262195,-0.27626863,-28.44197655,18.32797432,-100.3215408,-0.12244731,-0.60072589,-0.27970409,0.99998271,0.00108133,0.00523967,0.00244644,0.00741626,-0.00251728,0.00587839,0,0,0,0,1,2
1,1.62,158,0.09016408,-1.00153697,0.02735077,0.36885038,2.83487535,-2.32909107,-42.03449249,2.36772871,-109.2955246,-2.50369501,-4.88556767,6.52342558,0.99728781,0.01936744,0.04378439,-0.05590194,-0.01785398,-0.0023087,0.00729489,0,0,0,0,1,2
2,1.62,160,0.08518754,-0.99631804,0.00252473,0.00658456,1.38019109,-0.49502489,-50.68693161,-16.60333252,-85.03361511,0.07749143,2.5071156,12.42457962,0.99389124,0.00169525,-0.02182165,-0.10817192,0.0011985,0.00066172,0.00000703,0,0,0,0,1,2
4,1.62,158,-0.08795527,-0.99972928,-0.06670982,6.27835989,1.02962947,-0.37755942,-28.73428726,18.29874229,-100.2338486,-0.06066125,-0.59631711,-0.26532796,0.99998373,0.00054141,0.00520258,0.00231814,0.00772321,-0.00483988,0.00567735,0,0,0,0,1,2
1,1.63,159,0.08548373,-1.00411725,0.02577643,0.86491603,1.88504732,-2.43693185,-42.50219345,2.30926633,-109.7047653,-2.4934175,-4.86182976,6.54141235,0.99728924,0.01928312,0.04357583,-0.05606741,-0.00981299,-0.00387508,0.00872259,0,0,0,0,1,2
2,1.63,161,0.08348776,-0.99664479,0.00464806,-0.11901486,1.05233431,-0.42762411,-51.3300209,-16.01870728,-84.97515106,0.14945824,2.47103786,12.4412899,0.99388307,0.00104014,-0.02157651,-0.10830429,0.00280869,0.00246298,0.00025814,0,0,0,0,1,2
4,1.63,159,-0.0846854,-1.00013614,-0.06535473,6.52538633,0.44190684,-0.48944613,-28.67582512,17.56796265,-100.3507767,0.00404965,-0.59115756,-0.256686,0.99998426,-0.00002378,0.00515886,0.00223979,0.0045216,-0.00457584,0.00577208,0,0,0,0,1,2
1,1.64,160,0.08326498,-1.00712574,0.02781512,1.00295138,0.91363353,-2.50825334,-42.50219345,2.30926633,-109.7047653,-2.48246098,-4.83710051,6.54957628,0.99729592,0.01919717,0.04335665,-0.05614781,-0.00669758,-0.00226722,0.0114335,0,0,0,0,1,2
2,1.64,162,0.08464971,-0.99857336,0.00643262,-0.26156008,1.0858711,-0.32082713,-51.3300209,-16.01870728,-84.97515106,0.14776981,2.47421122,12.4522686,0.99387211,0.00105985,-0.02160234,-0.10839973,0.00127306,0.00332231,0.00221751,0,0,0,0,1,2
4,1.64,160,-0.08444206,-0.99974763,-0.06069649,6.20797348,-0.35489568,-0.58979052,-28.52966881,18.21105003,-100.0292282,0.07598852,-0.62668419,-0.26406178,0.99998218,-0.00065051,0.00547033,0.00230071,0.00424312,-0.00109848,0.00508939,0,0,0,0,1,2
1,1.65,161,0.07688471,-1.0023104,0.02724689,1.09323394,0.8625744,-2.52811098,-42.47296143,2.66004086,-108.7693634,-2.47064686,-4.81216764,6.55710268,0.99730307,0.01910413,0.04313514,-0.05622298,-0.00073399,-0.0026618,0.00559254,0,0,0,0,1,2
2,1.65,163,0.08441603,-0.99798524,0.00820099,-0.34947625,1.32350969,-0.10734873,-50.62847137,-16.54487038,-85.06284332,0.14542438,2.47524285,12.46566105,0.99385917,0.0010837,-0.02160894,-0.10851629,0.00151198,0.00513009,0.00162207,0,0,0,0,1,2
4,1.65,161,-0.08310088,-1.00119865,-0.05631142,5.21818972,-0.89267826,-0.74166483,-28.7927494,16.66179466,-100.2338486,0.12873299,-0.61981547,-0.26976579,0.99998206,-0.00111065,0.00541151,0.00234804,0.00239468,0.00224968,0.0061833,0,0,0,0,1,2
1,1.66,162,0.07755371,-1.0021503,0.03219365,1.4729383,0.60642678,-2.60959196,-41.88833618,2.51388478,-109.5878372,-2.45521522,-4.7863698,6.56151867,0.99731261,0.01898124,0.0429038,-0.05627257,-0.00092263,0.00202784,0.00584834,0,0,0,0,1,2
2,1.66,164,0.08179276,-0.99834508,0.00869017,-0.68778437,1.68485689,0.07533127,-50.80385971,-15.9894762,-84.53668213,0.14001295,2.47443891,12.48280048,0.99384308,0.0011331,-0.02159668,-0.10866599,0.00414696,0.00569362,0.00186932,0,0,0,0,1,2
4,1.66,162,-0.08200625,-1.00179482,-0.05679725,4.19222593,-0.9109481,-0.86857587,-28.7927494,18.15258598,-99.8830719,0.17128363,-0.6116814,-0.27642483,0.99998176,-0.00148183,0.00534148,0.00240424,0.00139523,0.00099209,0.00673055,0,0,0,0,1,2
1,1.67,163,0.07876927,-1.00366771,0.03672516,1.05928385,0.74059075,-2.58422875,-41.71294785,2.19234133,-109.1201401,-2.40144897,-4.75609016,6.56291056,0.99733138,0.01852812,0.04261411,-0.05631096,-0.00135962,0.00602162,0.00780388,0,0,0,0,1,2
2,1.67,165,0.08407144,-0.99668813,0.01179979,-0.82871503,1.98968542,0.39503813,-50.51154709,-18.7079792,-85.47208405,0.13346516,2.47043061,12.50304413,0.9938246,0.00118989,-0.02155549,-0.10884291,0.00174831,0.00890563,0.00031056,0,0,0,0,1,2
4,1.67,163,-0.08266374,-1.00106966,-0.05467871,4.34983158,-0.51192528,-0.89662945,-28.7927494,18.15258598,-99.8830719,0.21509534,-0.60303175,-0.27901947,0.99998152,-0.00186421,0.00526696,0.00242499,0.00225865,0.0023223,0.00592738,0,0,0,0,1,2
