SensorId, TimeStamp (s), FrameNumber, AccX (g), AccY (g), AccZ (g), GyroX (deg/s), GyroY (deg/s), GyroZ (deg/s), MagX (uT), MagY (uT), MagZ (uT), EulerX (deg), EulerY (deg), EulerZ (deg), QuatW, QuatX, QuatY, QuatZ, LinAccX (g), LinAccY (g), LinAccZ (g), Pressure (kPa), Altitude (m), Temperature (degC), HeaveMotion (m),Rep,Clase
1,0,0,-0.05590161,-0.99586278,0.07245728,-0.52678841,-4.06213522,4.02748013,-51.53463745,6.05086231,-100.3507767,0.11331997,7.5783987,3.28868389,0.99740452,0.00091001,-0.06608686,-0.02856717,0.00010055,0.01259256,-0.00001474,0,0,0,0,1,1
2,0,0,-0.00102488,-1.00008404,-0.03965646,1.36024332,4.70131111,-0.88448328,-52.87927628,-15.11254025,-85.82286072,-0.43989384,-1.34640419,-3.86275935,0.999354,0.00423232,0.01161319,0.03374504,-0.00732636,-0.01636589,0.00075575,0,0,0,0,1,1
4,0,0,0.05248259,-0.89219636,-0.36742708,-9.78749561,-3.95261312,0.79888994,-28.646595,27.0681076,-111.1078644,5.46614695,0.15390033,4.99084949,0.99791718,-0.04757936,-0.00341633,-0.04342606,-0.04344455,-0.03175179,-0.03231134,0,0,0,0,1,1
1,0.01,1,-0.06596237,-1.00434637,0.06477165,-0.27681714,-2.94780684,4.8276372,-50.920784,6.19701815,-100.496933,0.11237826,7.53201914,3.25607347,0.99743921,0.0008879,-0.06568319,-0.02828502,0.00738805,0.00309723,0.00959873,0,0,0,0,1,1
2,0.01,1,-0.00011439,-1.00236034,-0.03914966,1.73326206,3.71797395,-1.02243388,-53.34697342,-15.22946453,-85.93978119,-0.42285886,-1.33532727,-3.82608366,0.99936652,0.00407682,0.01152291,0.03342315,-0.00801452,-0.01609958,0.00303101,0,0,0,0,1,1
4,0.01,1,0.07161599,-0.89248151,-0.37708607,-7.71090174,-4.53290272,0.19178833,-28.96813774,27.21426392,-110.406311,5.38868141,0.13598658,4.94963932,0.99796456,-0.0469127,-0.0032141,-0.04307681,-0.06289727,-0.03879395,-0.02781278,0,0,0,0,1,1
1,0.02,2,-0.07717799,-1.01436937,0.05927178,0.24594049,-1.98633647,5.22224951,-51.73925781,6.37240553,-100.6430893,0.11618061,7.48111391,3.23372269,0.99747372,0.00082946,-0.06524118,-0.02808956,0.01572878,-0.00301492,0.0210962,0,0,0,0,1,1
2,0.02,2,0.00500477,-1.00409591,-0.03955952,1.58924294,3.18381119,-0.97474295,-53.69775009,-14.17714119,-86.14440155,-0.40721187,-1.32485855,-3.79471183,0.99937725,0.00393418,0.01143725,0.03314769,-0.01291203,-0.0167526,0.00484371,0,0,0,0,1,1
4,0.02,2,0.07958721,-0.90582049,-0.39116031,-4.75700235,-4.03552771,-0.63838136,-29.02659988,27.21426392,-110.7863159,4.87333441,0.91545302,4.76768589,0.99821347,-0.0421449,-0.00974293,-0.04121561,-0.06752103,-0.04247483,-0.00982764,0,0,0,0,1,1
1,0.03,3,-0.07906248,-1.01747537,0.06164413,0.84450734,-1.04074836,4.90647173,-51.73925781,6.37240553,-100.6430893,0.12543727,7.43277645,3.22203851,0.99750406,0.00073036,-0.06482277,-0.02798381,0.01611563,-0.00096656,0.02452158,0,0,0,0,1,1
2,0.03,3,0.01490299,-1.0043633,-0.02450306,2.17969608,2.55185485,-0.70891345,-53.52236176,-14.3232975,-86.49517822,-0.38562447,-1.31720591,-3.76968813,0.99938601,0.00374122,0.01137757,0.03292709,-0.0226583,-0.00203212,0.00502204,0,0,0,0,1,1
4,0.03,3,0.07708726,-0.91474229,-0.39798602,-2.81279087,-3.36527467,-1.66206861,-29.02659988,27.21426392,-110.7863159,4.84436083,0.91867334,4.73047066,0.99823731,-0.0418945,-0.00974695,-0.04089269,-0.05466346,-0.03795159,0.00066946,0,0,0,0,1,1
1,0.04,4,-0.07890944,-1.01369333,0.06439641,0.38921273,-0.15932493,4.2849617,-50.5407753,5.6416254,-101.0230942,0.1296031,7.39010525,3.21858549,0.99752903,0.00068168,-0.06445235,-0.0279525,0.01585869,0.00189191,0.02084272,0,0,0,0,1,1
2,0.04,4,0.02421997,-1.00193763,-0.01789092,2.20032358,2.78325558,-0.25199294,-53.37620544,-14.70330334,-86.17362976,-0.31880099,-0.94966024,-3.73732162,0.99942929,0.00305072,0.0081921,0.03263029,-0.03033476,0.00395422,0.00259893,0,0,0,0,1,1
4,0.04,4,0.05973896,-0.92328238,-0.40148443,-2.24856091,-3.24988699,-2.96145749,-29.1727562,27.03887749,-110.0555344,4.82094669,0.93440402,4.68955898,0.99825954,-0.04168835,-0.00986074,-0.04053247,-0.03705912,-0.03690242,0.00973229,0,0,0,0,1,1
1,0.05,5,-0.07483523,-1.00192726,0.06094436,0.25755197,0.88278008,3.06145763,-52.03157043,5.14469433,-99.91230774,0.10900658,7.21104383,3.22305417,0.9976272,0.00081954,-0.06288847,-0.02800726,0.01284056,-0.00079763,0.00817852,0,0,0,0,1,1
2,0.05,5,0.03769783,-0.99406743,-0.01278571,1.81071973,3.16944003,0.40342641,-53.37620544,-14.70330334,-86.17362976,-0.30072209,-0.9530254,-3.70582724,0.99943846,0.00289174,0.00822739,0.03235438,-0.0391777,0.00800751,-0.00524339,0,0,0,0,1,1
4,0.05,5,0.02545735,-0.91203284,-0.3946768,-4.98092985,-4.2859745,-4.05054617,-28.646595,27.71119499,-110.7278595,4.76987743,0.95645297,4.6351881,0.99829584,-0.04124029,-0.01001519,-0.04005513,-0.00250579,-0.03507395,-0.00363961,0,0,0,0,1,1
1,0.06,6,-0.07395082,-0.98812431,0.06181082,-0.15202318,1.29617941,1.73047912,-51.5931015,5.904706,-100.3215408,0.10673233,7.19297695,3.23452806,0.99763429,0.00084119,-0.06273055,-0.02810883,0.01222579,0.0011747,-0.00576835,0,0,0,0,1,1
2,0.06,6,0.04652832,-0.99090737,-0.01895366,1.47337413,2.81318545,1.08448911,-53.43466949,-15.37562084,-86.11517334,-0.28603399,-0.96328986,-3.67769742,0.99944603,0.00276448,0.00832174,0.03210818,-0.04819034,0.00151774,-0.00817182,0,0,0,0,1,1
4,0.06,6,-0.00407776,-0.9038713,-0.38497218,-6.80672169,-6.03314734,-4.83295536,-29.61122513,27.21426392,-110.6401596,4.70006466,0.97932333,4.56178761,0.99834496,-0.04063048,-0.010164,-0.03941351,0.02734983,-0.02886598,-0.01552224,0,0,0,0,1,1
1,0.07,7,-0.06981699,-0.98489684,0.06669607,-0.55240273,0.75353211,0.91786325,-52.03157043,5.46623802,-100.4384689,0.10072387,7.18335581,3.24037313,0.99763805,0.00089432,-0.06264528,-0.02816322,0.00850512,0.0063413,-0.0094502,0,0,0,0,1,1
2,0.07,7,0.04155787,-0.99104792,-0.02439428,1.59817672,0.91743386,1.79486239,-53.61005402,-14.46945286,-86.23209381,-0.27007776,-0.98104805,-3.66839647,0.99944758,0.00262959,0.00848131,0.03202622,-0.04347318,-0.00419139,-0.00801951,0,0,0,0,1,1
4,0.07,7,-0.02184348,-0.89812344,-0.3699953,-7.22993946,-7.93763399,-5.10680151,-29.14352417,27.8573513,-110.6693955,4.52224922,0.43654016,4.40960073,0.99848026,-0.03927787,-0.00532157,-0.0382911,0.04294726,-0.01622535,-0.02757153,0,0,0,0,1,1
1,0.08,8,-0.06346741,-0.99621183,0.07993478,0.16976802,-0.88833958,0.36773127,-52.03157043,5.46623802,-100.4384689,0.10300994,7.18022871,3.23169327,0.99764192,0.00086891,-0.06261867,-0.02808648,-0.00009008,0.01890824,0.00121343,0,0,0,0,1,1
2,0.08,8,0.02424339,-0.99582857,-0.01718939,1.48838007,-1.59371841,2.36069322,-53.7269783,-14.70330334,-85.76439667,-0.255169,-1.00497198,-3.68407798,0.9994418,0.00250743,0.00869379,0.0321623,-0.02647221,0.00281743,-0.00360974,0,0,0,0,1,1
4,0.08,8,-0.03561576,-0.90147418,-0.36140332,-6.16589689,-9.21859074,-4.99909687,-29.14352417,27.8573513,-110.6693955,4.459126,0.44886327,4.30585957,0.99853575,-0.03872858,-0.0053728,-0.03738585,0.04962081,-0.00449921,-0.02873819,0,0,0,0,1,1
1,0.09,9,-0.05927708,-1.00973725,0.07915681,1.45600176,-2.17677426,0.60472608,-51.44694519,5.49546909,-100.847702,0.11906049,7.1755209,3.21256971,0.99764919,0.00071757,-0.06258174,-0.02791133,-0.00678591,0.01714634,0.01363721,0,0,0,0,1,1
2,0.09,9,0.0109217,-1.00045991,-0.00478263,1.55774391,-3.30722761,2.63687277,-53.90236664,-15.25869656,-85.85208893,-0.05958058,-0.8997044,-3.70705819,0.99944574,0.0007736,0.00783039,0.03234761,-0.01296094,0.01424984,0.00062057,0,0,0,0,1,1
4,0.09,9,-0.0378335,-0.90824151,-0.36653697,-3.31957984,-9.14578342,-4.75828695,-29.02659988,27.74042702,-110.9909363,4.42445993,0.45914125,4.20348978,0.99858016,-0.03842798,-0.00541672,-0.03649194,0.05208548,-0.00529032,-0.02047729,0,0,0,0,1,1
1,0.1,10,-0.06377514,-1.01349831,0.08032528,1.58812714,-1.63721406,1.3673681,-52.03157043,4.53083897,-100.3215408,0.33591869,7.17170811,3.2565794,0.99764025,-0.00114732,-0.06260171,-0.02817616,-0.00321639,0.01690326,0.01822455,0,0,0,0,1,1
2,0.1,10,0.01113351,-1.01253748,-0.00327411,1.6859566,-2.76466775,3.00891232,-53.90236664,-15.25869656,-85.85208893,-0.04270083,-0.93024015,-3.73446536,0.99943596,0.00063693,0.00810133,0.03258553,-0.01176673,0.01329134,0.01264732,0,0,0,0,1,1
4,0.1,10,-0.0275429,-0.92599154,-0.3764075,0.49901295,-7.68745804,-4.21396112,-28.85121346,27.74042702,-110.7863159,4.42817307,0.46976504,4.11643791,0.99860615,-0.0384611,-0.00548127,-0.03572958,0.04210082,-0.00614206,-0.00013885,0,0,0,0,1,1
1,0.11,11,-0.06128262,-1.01047957,0.08125889,0.84007812,-0.58607191,1.48084068,-51.62233353,4.29698896,-100.0584641,0.34480104,7.15730333,3.25142097,0.99764919,-0.00123106,-0.06247843,-0.028127,-0.00524477,0.01522269,0.01484605,0,0,0,0,1,1
4,0.11,11,-0.00894247,-0.94982541,-0.39358142,2.04371953,-5.71670723,-3.29049444,-29.02659988,27.4481144,-111.0201721,4.44764662,0.47914588,4.05101395,0.99861962,-0.03863102,-0.00554703,-0.03515532,0.02386725,-0.01130889,0.02897042,0,0,0,0,1,1
1,0.12,12,-0.0607965,-1.01081681,0.08128673,0.64705181,-0.60513753,0.82426864,-52.32388306,5.4077754,-100.4384689,0.35171771,7.14946604,3.24613094,0.99765474,-0.0012961,-0.06241184,-0.0280775,-0.00597067,0.01509988,0.01506465,0,0,0,0,1,1
4,0.12,12,0.00622433,-0.96102113,-0.40649188,0.64058828,-4.18483591,-2.35302401,-29.02659988,27.8573513,-110.84478,4.19717979,0.44736969,4.00173521,0.99871737,-0.03646028,-0.00517756,-0.03474806,0.00876909,-0.01707987,0.04474711,0,0,0,0,1,1
1,0.13,13,-0.06319741,-1.00637102,0.06681745,0.44185176,-2.48361969,0.15139215,-52.32388306,5.4077754,-100.4384689,0.35776424,7.14957476,3.2223351,0.99766034,-0.00136168,-0.06241398,-0.02786703,-0.00266678,0.00080759,0.01030708,0,0,0,0,1,1
4,0.13,13,0.01323871,-0.95639932,-0.41380048,-3.26907444,-2.88327217,-1.37892449,-29.08506203,27.94504547,-111.1663208,4.16402674,0.44933376,3.97004747,0.99873739,-0.03617217,-0.00517462,-0.03447276,0.00130999,-0.02203374,0.04359275,0,0,0,0,1,1
1,0.14,14,-0.07416699,-0.99844736,0.04929518,0.09117554,-4.52083683,0.23491471,-52.14849472,6.28471184,-100.1169205,0.36159202,7.15019274,3.17769718,0.99767071,-0.00141917,-0.06241973,-0.02747629,0.00980709,-0.01629132,0.00357692,0,0,0,0,1,1
2,0.14,11,-0.01179667,-0.99467117,-0.0115807,1.67349052,-2.16197515,3.85507035,-53.46389771,-14.67407131,-86.02747345,0.0501871,-1.17437792,-3.80825949,0.99939549,-0.00009718,0.01025709,0.03322097,0.00794304,0.00334756,-0.00538257,0,0,0,0,1,1
4,0.14,14,0.01193641,-0.94119108,-0.40921038,-7.3230567,-2.22047019,-0.7279734,-29.08506203,27.94504547,-111.1663208,4.09047985,0.4477053,3.94720578,0.99876738,-0.03553267,-0.00513122,-0.03427749,0.0025031,-0.02359166,0.02783691,0,0,0,0,1,1
1,0.15,15,-0.08586495,-0.99160379,0.04460774,0.42535985,-5.76864433,0.93037844,-52.32388306,5.904706,-100.4676971,0.14705859,6.87400103,3.0876441,0.99784023,0.00033461,-0.05996368,-0.02681611,0.02141009,-0.01970779,-0.00136618,0,0,0,0,1,1
2,0.15,12,-0.01063656,-0.99103355,-0.01395354,1.45958519,-2.23308063,4.04879093,-53.46389771,-14.67407131,-86.02747345,0.0649113,-1.21518397,-3.83022189,0.9993853,-0.00021173,0.01061728,0.03341087,0.00476707,0.00039249,-0.00892578,0,0,0,0,1,1
4,0.15,15,0.0085398,-0.92070174,-0.39757085,-9.88288975,-2.07002687,-0.65114981,-29.08506203,27.0681076,-110.903244,3.99134159,0.44588804,3.92621255,0.99880403,-0.03467006,-0.00507937,-0.03409949,0.00571473,-0.02062194,0.00418048,0,0,0,0,1,1
1,0.16,16,-0.09495039,-0.99010545,0.04440421,0.72146481,-6.87796259,1.71770918,-51.76848984,5.81701231,-100.6723175,0.15913065,6.86111403,3.02003503,0.9978627,0.00019115,-0.05985442,-0.02622141,0.02692654,-0.01711088,-0.00160873,0,0,0,0,1,1
2,0.16,13,-0.01099592,-0.99593747,-0.02185023,1.56769288,-2.72458363,4.40886307,-53.90236664,-15.69716454,-85.32592773,0.08076087,-1.25965738,-3.85707784,0.99937326,-0.0003344,0.01100985,0.03364321,0.00445352,-0.00769856,-0.00388966,0,0,0,0,1,1
4,0.16,16,0.00372528,-0.90555215,-0.38495651,-9.59980011,-2.08709955,-0.61527073,-28.32505035,26.3957901,-110.7863159,3.8950274,0.44363466,3.90518427,0.99883914,-0.03383215,-0.00502486,-0.03392113,0.01037004,-0.01424405,-0.01513389,0,0,0,0,1,1
1,0.17,17,-0.11236329,-0.99627715,0.04802412,1.22590768,-7.3590765,2.24975872,-51.27155685,4.29698896,-100.2630768,0.17665747,6.84323311,2.94830394,0.99788827,-0.00000297,-0.05970273,-0.02558809,0.04254625,-0.01413454,0.00788629,0,0,0,0,1,1
2,0.17,14,-0.01274789,-1.00284398,-0.02607444,1.35168421,-3.7782042,4.59102964,-53.40543747,-14.61560917,-86.02747345,0.09454423,-1.30608678,-3.89442158,0.99935764,-0.00043725,0.01141895,0.03396707,0.00551052,-0.01206984,0.0030722,0,0,0,0,1,1
4,0.17,17,0.00003456,-0.89632827,-0.37884456,-8.13449955,-1.73802269,-0.58561069,-28.26658821,27.65273285,-110.6109314,3.699476,0.26460674,3.85119271,0.99891442,-0.03218254,-0.00339123,-0.03350957,0.01318795,-0.01079341,-0.02627427,0,0,0,0,1,1
1,0.18,18,-0.12962517,-1.0066191,0.05185855,1.43369341,-6.74837208,2.13222623,-51.27155685,4.29698896,-100.2630768,0.19583948,6.82616472,2.88306069,0.99791145,-0.00020776,-0.05955827,-0.02501042,0.05721744,-0.0112535,0.02145277,0,0,0,0,1,1
2,0.18,15,-0.01188012,-1.01030266,-0.01825121,1.33275032,-4.10404396,4.51748371,-53.81467438,-13.79713535,-86.46594238,0.10819188,-1.35182559,-3.93504572,0.99934089,-0.00053852,0.01182208,0.03431946,0.00395241,-0.00435962,0.01043962,0,0,0,0,1,1
4,0.18,18,-0.00277914,-0.89043093,-0.3791154,-5.06098652,-1.23085916,-0.44152981,-28.73428726,26.83425903,-110.6401596,3.64873576,0.26395103,3.83845568,0.9989323,-0.03174079,-0.00336714,-0.03340022,0.01362641,-0.01106556,-0.03164797,0,0,0,0,1,1
1,0.19,19,-0.14083797,-1.00970936,0.06003793,1.03593194,-4.94569111,1.94197607,-51.18386459,5.23238802,-100.0292282,0.20977817,6.80988216,2.83498025,0.99793035,-0.00035766,-0.05941938,-0.02458493,0.06727442,-0.00355381,0.02702993,0,0,0,0,1,1
2,0.19,16,-0.00420602,-1.01214623,-0.00769785,1.54868364,-3.85045958,4.65796471,-53.08389282,-15.72639561,-86.0859375,0.22136384,-1.31868899,-3.9718461,0.99933219,-0.0015317,0.01156748,0.03462937,-0.0041581,0.0055285,0.01224849,0,0,0,0,1,1
4,0.19,19,-0.00331883,-0.89231527,-0.38283414,-2.58774924,-0.69030696,-0.28246063,-28.73428726,26.83425903,-110.6401596,3.62275314,0.26389778,3.83116364,0.9989416,-0.03151452,-0.0033571,-0.03333743,0.01418277,-0.0129811,-0.02835691,0,0,0,0,1,1
1,0.2,20,-0.13782752,-1.00443256,0.07037327,0.14674824,-2.47098041,1.6590476,-52.00233841,5.72931862,-100.1169205,0.31252667,6.10887098,2.82303596,0.99827623,-0.00141004,-0.05333541,-0.02445277,0.06194832,0.00651398,0.02152769,0,0,0,0,1,1
2,0.2,17,-0.0006064,-1.00882113,0.00240557,1.76442754,-3.9266305,4.89942694,-53.08389282,-15.72639561,-86.0859375,0.23933156,-1.36813319,-4.01081467,0.99931502,-0.00166934,0.01200467,0.03496631,-0.00760305,0.01400794,0.0088219,0,0,0,0,1,1
4,0.2,20,0.00177778,-0.8942439,-0.39131397,-1.50673628,-1.07107854,-0.07431757,-29.1727562,27.65273285,-110.8740158,3.60756707,0.26046473,3.82108665,0.99894869,-0.03138344,-0.00332,-0.03325097,0.00909385,-0.01941104,-0.02287128,0,0,0,0,1,1
1,0.21,21,-0.12363519,-0.99985856,0.07574943,0.25112841,-0.54043394,1.03722775,-52.09003067,6.138556,-99.79537964,0.31553409,6.09886599,2.81751704,0.99828207,-0.00144096,-0.05324883,-0.02440365,0.03966457,0.01082325,0.01366659,0,0,0,0,1,1
2,0.21,18,-0.00708004,-0.99684411,0.00607245,1.6587373,-3.27176023,4.96071577,-53.34697342,-14.2648344,-85.79362488,0.25622952,-1.41809893,-4.04323483,0.99929965,-0.00179792,0.01244607,0.0352461,-0.00218866,0.01717808,-0.00328532,0,0,0,0,1,1
4,0.21,21,0.00474591,-0.89757276,-0.39942545,-1.85544741,-1.9221282,0.10252828,-28.50043869,27.71119499,-110.7570877,3.58881831,0.25212479,3.80385447,0.99895889,-0.03122291,-0.00323716,-0.03310357,0.00605121,-0.02493466,-0.01630329,0,0,0,0,1,1
1,0.22,22,-0.11512615,-0.99972016,0.08227892,0.49126196,-0.78024125,0.26547319,-52.49926758,5.96316862,-99.29844666,0.32111529,6.09671974,2.81058288,0.99828446,-0.00149327,-0.05323123,-0.02434072,0.03117261,0.01725812,0.01230663,0,0,0,0,1,1
2,0.22,19,-0.01428202,-0.98772174,-0.00012489,0.96331346,-1.97069776,4.89615488,-54.34083557,-14.35252857,-86.02747345,0.26605746,-1.46726775,-4.06254721,0.99928808,-0.0018663,0.01287818,0.03541226,0.00401256,0.01061714,-0.01239641,0,0,0,0,1,1
4,0.22,22,0.01087558,-0.900217,-0.40851191,-2.27672839,-3.01446342,0.10157892,-28.96813774,27.94504547,-111.0494003,3.23380971,0.27211568,3.8255496,0.9990443,-0.02812153,-0.0033142,-0.03329765,-0.00009309,-0.03010397,-0.00998972,0,0,0,0,1,1
1,0.23,23,-0.11096314,-0.99708754,0.07548463,-0.02549636,-2.24561906,-0.06120009,-52.49926758,6.54779291,-99.79537964,0.32271537,6.09878635,2.78843832,0.99828815,-0.00151706,-0.05324928,-0.02414699,0.02767299,0.01057316,0.00855085,0,0,0,0,1,1
2,0.23,20,-0.01537129,-0.98712552,0.00140425,0.55435514,-0.89934564,4.96561909,-53.90236664,-14.35252857,-86.23209381,0.27170268,-1.5170176,-4.07108736,0.9992798,-0.00189914,0.01331391,0.03548488,0.00423218,0.01201775,-0.01301002,0,0,0,0,1,1
4,0.23,23,0.01491437,-0.90901554,-0.41256765,-2.68032575,-4.00296068,0.11964894,-28.70505714,27.47734642,-111.5463333,3.2066009,0.25537857,3.78933311,0.99906164,-0.02789019,-0.00315156,-0.03298679,-0.00390751,-0.02507043,-0.00056201,0,0,0,0,1,1
1,0.24,24,-0.10482481,-0.99326986,0.06756445,-0.37629816,-2.97983241,0.29505759,-52.49926758,6.54779291,-99.79537964,0.32141691,6.0977788,2.75816703,0.99829495,-0.00152002,-0.05323983,-0.02388391,0.02245719,0.00290092,0.00319542,0,0,0,0,1,1
2,0.24,21,-0.00416483,-0.99335742,0.00071976,0.64823359,0.15915537,5.41401863,-53.90236664,-14.20637226,-85.85208893,0.42757571,-1.422773,-4.06888533,0.99928737,-0.00328789,0.01254025,0.03545097,-0.0071424,0.01067599,-0.00658682,0,0,0,0,1,1
4,0.24,24,0.01970272,-0.91410804,-0.41765618,-3.33566809,-4.36646318,-0.08016483,-28.96813774,27.50657654,-111.341713,3.17281508,0.23903947,3.74904346,0.99908155,-0.02760141,-0.00298967,-0.0326404,-0.0089434,-0.02684018,0.00625248,0,0,0,0,1,1
1,0.25,25,-0.10251555,-0.99358708,0.06650983,-0.34297347,-1.65938807,0.94874239,-52.35311127,5.87547493,-99.94153595,0.36142009,5.87700272,2.74293518,0.99839801,-0.00192197,-0.05132448,-0.0237411,0.01912246,0.00167807,0.00290579,0,0,0,0,1,1
2,0.25,22,0.0058971,-1.00216091,0.0049106,0.27482551,0.51782972,5.73686552,-53.90236664,-14.20637226,-85.85208893,0.43027598,-1.48009658,-4.06328392,0.99928278,-0.0032943,0.01304081,0.03539973,-0.01611488,0.01296938,0.00229003,0,0,0,0,1,1
4,0.25,25,0.01899154,-0.91924334,-0.42037383,-3.63872981,-3.95014572,-0.21448839,-28.96813774,27.50657654,-111.341713,3.13604522,0.22554109,3.71209049,0.99910092,-0.0272856,-0.00285271,-0.03232241,-0.00845169,-0.0263886,0.01201968,0,0,0,0,1,1
1,0.26,26,-0.10336692,-0.99681228,0.06873379,-0.31785411,0.32129219,1.57484329,-51.94387436,5.99239969,-99.53230286,0.35802576,5.86108255,2.74448061,0.9984048,-0.00189504,-0.05118509,-0.02375669,0.01633675,0.00320882,0.00604694,0,0,0,0,1,1
2,0.26,23,0.00387653,-1.00868452,-0.00464225,-0.22759566,-0.08012207,5.70028067,-53.96083069,-14.41099072,-85.85208893,0.42801657,-1.53710735,-4.06359005,0.99927628,-0.0032569,0.01353727,0.03540057,-0.01498918,0.00352717,0.00895531,0,0,0,0,1,1
4,0.26,26,0.01694418,-0.92545074,-0.41800541,-3.55297828,-2.97956586,-0.23435859,-29.11429405,26.98041534,-110.6693955,3.1002357,0.21600743,3.68398643,0.99911743,-0.02697676,-0.00275287,-0.03208051,-0.00657014,-0.0208849,0.01649522,0,0,0,0,1,1
1,0.27,27,-0.10917093,-0.99964994,0.07491115,0.06041285,1.45498407,1.80389345,-52.49926758,6.34317446,-99.8830719,0.35745636,5.84212971,2.75776076,0.99841052,-0.00188815,-0.05102006,-0.02387337,0.02112587,0.00924163,0.01024595,0,0,0,0,1,1
2,0.27,24,0.00097123,-1.00917757,-0.011915,-0.33729842,-1.46073234,5.80753803,-53.7269783,-14.11867905,-86.02747345,0.42481002,-1.59530079,-4.07767153,0.99926513,-0.00320918,0.01404414,0.03552161,-0.01308452,-0.00368378,0.00954377,0,0,0,0,1,1
4,0.27,27,0.01239887,-0.92949271,-0.41505873,-3.82140279,-1.09203136,-0.17271402,-28.99736977,27.91581345,-110.8740158,2.90108132,0.22727001,3.69444585,0.99915975,-0.02523688,-0.00279762,-0.03217396,-0.00204477,-0.01511648,0.01872074,0,0,0,0,1,1
1,0.28,28,-0.10506868,-1.00102055,0.07815479,0.1683903,1.52597117,1.54620707,-52.17772675,4.58930111,-99.73691559,0.35787764,5.82569981,2.77210951,0.99841475,-0.00188892,-0.05087724,-0.02399882,0.01648672,0.01239786,0.01097698,0,0,0,0,1,1
2,0.28,25,0.00211701,-1.00889122,-0.00233493,-0.10810932,-3.2922523,5.88835096,-53.96083069,-15.81408882,-86.43671417,0.42416421,-1.65444863,-4.11011076,0.99924779,-0.00318104,0.01456062,0.03580239,-0.0152617,0.00591777,0.00915466,0,0,0,0,1,1
4,0.28,28,0.01024039,-0.93080348,-0.4145996,-4.48003769,0.89954978,-0.21570484,-29.08506203,28.14966393,-110.6986237,2.85635519,0.23279814,3.70214009,0.99916726,-0.02484515,-0.00283493,-0.03224093,0.00034078,-0.01129238,0.01953407,0,0,0,0,1,1
1,0.29,29,-0.09558973,-1.00679231,0.07214575,0.89232874,1.10036445,1.12722361,-52.17772675,4.58930111,-99.73691559,0.36590579,5.81371975,2.78390169,0.99841744,-0.00195619,-0.05077474,-0.02409846,0.00593214,0.00596989,0.01448499,0,0,0,0,1,1
2,0.29,26,-0.01144132,-1.00514495,-0.00671294,-0.77444047,-5.07658672,5.76964378,-53.96083069,-15.81408882,-86.43671417,0.35516772,-1.80647314,-4.15790415,0.99921465,-0.00252514,0.01586577,0.03622308,-0.00319085,0.00182514,0.00531089,0,0,0,0,1,1
4,0.29,29,0.01192909,-0.92949647,-0.41699398,-5.08864784,2.44301772,-0.543293,-28.88044357,27.8573513,-110.9617081,2.8056767,0.24745664,3.72273993,0.99917227,-0.0243986,-0.00295287,-0.03241866,-0.00114725,-0.01316176,0.01938724,0,0,0,0,1,1
1,0.3,30,-0.08613787,-1.00064087,0.072914,0.46783778,0.95692021,0.51973397,-52.47003555,5.87547493,-99.94153595,0.43426406,5.81910467,2.77821565,0.99841493,-0.00255315,-0.0508359,-0.0240184,-0.0023052,0.00671294,0.00671784,0,0,0,0,1,1
2,0.3,27,-0.03642044,-0.99871832,-0.01446278,-1.2805382,-6.66753769,5.40680122,-53.17158508,-14.79099655,-86.14440155,0.34347814,-1.86116934,-4.22389126,0.99918628,-0.00239646,0.01634039,0.03679837,0.01947574,-0.00503074,-0.00131211,0,0,0,0,1,1
4,0.3,30,0.00918668,-0.92536992,-0.41608381,-5.39629889,3.64056778,-0.87459248,-28.88044357,27.8573513,-110.9617081,2.75204563,0.26993403,3.75301957,0.99917471,-0.02392375,-0.00314001,-0.03267934,0.00191086,-0.01326356,0.01522255,0,0,0,0,1,1
1,0.31,31,-0.08948047,-1.00246489,0.07726809,0.02768717,0.69176507,-0.21319528,-52.20695496,5.29085064,-100.1753845,0.43393597,5.82076979,2.78522611,0.99841279,-0.00254683,-0.0508505,-0.02407955,0.000709,0.01007695,0.00940565,0,0,0,0,1,1
2,0.31,28,-0.05724211,-0.9897365,-0.00981927,-0.88935858,-6.921453,5.01508665,-54.01929092,-14.20637226,-86.23209381,0.33579993,-1.91198516,-4.2925148,0.99915695,-0.0023031,0.01678239,0.03739626,0.03925012,-0.00035895,-0.01065187,0,0,0,0,1,1
4,0.31,31,0.00591428,-0.9174242,-0.41151476,-6.84904003,3.62316442,-1.21216154,-28.88044357,28.44197655,-110.6109314,2.6838882,0.29546461,3.78186297,0.99918008,-0.02332131,-0.00334906,-0.03292747,0.00555621,-0.01159015,0.00600537,0,0,0,0,1,1
1,0.32,32,-0.08486238,-1.00237453,0.06868169,0.91803706,1.01480854,-0.06969711,-52.03157043,6.08009338,-100.0584641,0.44223699,5.82077599,2.79700208,0.99841005,-0.00261393,-0.05085256,-0.02417846,-0.00368642,0.00148109,0.00795329,0,0,0,0,1,1
2,0.32,29,-0.0701662,-0.98767102,-0.00810202,-0.69000065,-5.36854172,4.87393856,-53.93159866,-15.90178299,-86.37825012,0.32989261,-1.96124279,-4.34564352,0.99913245,-0.0022275,0.01721099,0.03785885,0.05127266,0.00143644,-0.01291161,0,0,0,0,1,1
4,0.32,32,0.00825108,-0.91022855,-0.40671441,-8.44157791,2.7914114,-1.57994294,-28.73428726,28.44197655,-110.6986237,2.47583055,0.29206574,3.79762697,0.9992162,-0.02150764,-0.00326259,-0.0330716,0.00349338,-0.00854617,-0.0026413,0,0,0,0,1,1
1,0.33,33,-0.08364601,-0.99519044,0.06078595,1.07536411,1.53836989,-0.57061058,-52.26541901,5.55393171,-100.6430893,0.45162731,5.82542181,2.81456161,0.99840403,-0.00268695,-0.05089543,-0.02432708,-0.00341304,-0.0061866,0.00022602,0,0,0,0,1,1
2,0.33,30,-0.07535574,-0.98955727,-0.01981416,-0.4735657,-3.6730206,4.50707817,-53.75621033,-15.87255192,-85.85208893,0.32585832,-2.00667143,-4.38188362,0.99911368,-0.00217171,0.01760644,0.03817404,0.05567555,-0.01015778,-0.01089543,0,0,0,0,1,1
4,0.33,33,0.00888929,-0.90352982,-0.40548015,-9.1799078,1.42116213,-1.5691843,-28.93890572,27.97427559,-111.2832489,2.3841126,0.31212762,3.80489993,0.99923074,-0.02070185,-0.00341237,-0.03313396,0.00282528,-0.00720946,-0.00933293,0,0,0,0,1,1
1,0.34,34,-0.08592593,-0.99389833,0.04797025,1.21931303,1.85354507,-1.40774393,-52.26541901,5.55393171,-100.6430893,0.46215841,5.83820534,2.83605719,0.9983936,-0.00276637,-0.05100957,-0.02450909,-0.00062481,-0.01904058,-0.00134253,0,0,0,0,1,1
2,0.34,31,-0.06964482,-0.99377424,-0.02238704,-0.31098503,-1.81962264,4.03779364,-53.75621033,-15.87255192,-85.85208893,0.18287197,-2.54051208,-4.38033199,0.99902409,-0.00074711,0.02221308,0.0381715,0.04713553,-0.01199534,-0.00644352,0,0,0,0,1,1
4,0.34,34,0.00515688,-0.89991581,-0.40695766,-8.53694439,-0.24281681,-1.33015108,-28.96813774,28.20812607,-111.1663208,2.29865861,0.32328692,3.79785252,0.99924773,-0.01995367,-0.00348375,-0.03307308,0.00679329,-0.00859151,-0.01201011,0,0,0,0,1,1
1,0.35,35,-0.0804887,-1.00055528,0.04159616,3.38984513,0.41982231,-2.08230448,-51.65156174,5.26161957,-100.4092331,0.20978162,5.97010803,2.89428115,0.99832547,-0.00051248,-0.05210492,-0.02512506,-0.0063406,-0.02498168,0.00387146,0,0,0,0,1,1
2,0.35,32,-0.05426916,-0.99748999,-0.020865,-0.32843232,-0.20327576,3.44531345,-53.63928604,-14.38175964,-85.73516083,0.17963819,-2.57498741,-4.38188362,0.99901682,-0.00070711,0.02251257,0.03818492,0.024723,-0.00853299,-0.00224188,0,0,0,0,1,1
4,0.35,35,0.006933,-0.89507216,-0.40917325,-7.22207165,-2.0617342,-1.05542147,-28.646595,27.71119499,-110.9617081,2.22616935,0.32455134,3.77519369,0.99926662,-0.01932187,-0.00347003,-0.03287748,0.00508351,-0.01135023,-0.01542099,0,0,0,0,1,1
1,0.36,36,-0.0681507,-1.00128329,0.05231491,5.55760956,-2.66558599,-1.72771275,-52.1192627,5.84624386,-100.7015457,0.26763853,5.9890008,2.87957501,0.99831969,-0.00101906,-0.05228206,-0.02497003,-0.01692167,-0.01147254,0.0030633,0,0,0,0,1,1
2,0.36,33,-0.03642014,-0.99946505,-0.0265402,-0.20296222,0.38613892,3.24117565,-54.48699188,-14.14791012,-85.47208405,0.17747098,-2.60735178,-4.37758732,0.99901193,-0.00067826,0.02279397,0.03814721,0.00633775,-0.01413504,0.00011771,0,0,0,0,1,1
4,0.36,36,0.01003663,-0.89388162,-0.4095737,-5.11068964,-3.11884928,-0.52209955,-28.646595,27.71119499,-110.9617081,2.17469954,0.31662616,3.74490523,0.99928397,-0.01887622,-0.00338116,-0.03261622,0.00189204,-0.01121097,-0.01633278,0,0,0,0,1,1
1,0.37,37,-0.07972539,-1.00085533,0.0820357,4.32670641,-3.04489613,-1.68041313,-51.94387436,5.904706,-99.79537964,0.31348962,6.00768757,2.85879803,0.99831516,-0.00142391,-0.05245458,-0.02476744,-0.00547468,0.01731998,0.00658631,0,0,0,0,1,1
2,0.37,34,-0.02359029,-0.99759644,-0.02516413,-0.07922369,-0.35658151,3.24856782,-54.60391617,-14.41099072,-85.55977631,0.17676759,-2.63988066,-4.38073778,0.99900442,-0.00066065,0.02307735,0.03817413,-0.0070836,-0.01275379,-0.00155114,0,0,0,0,1,1
4,0.37,37,0.00975597,-0.89736617,-0.41132531,-3.51310825,-3.39734459,0.02036501,-28.23735809,28.14966393,-110.6986237,2.04321837,0.26387948,3.70358634,0.99931759,-0.01774573,-0.00287736,-0.03226799,0.00182057,-0.01009638,-0.01247978,0,0,0,0,1,1
1,0.38,38,-0.10096574,-1.00713384,0.10055102,2.38692427,-1.2954005,-1.35926986,-52.20695496,5.55393171,-99.06459808,0.33843848,6.02206612,2.85140562,0.99830985,-0.00164151,-0.05258513,-0.02469109,0.01428874,0.03485713,0.0178392,0,0,0,0,1,1
2,0.38,35,-0.01945473,-0.99676782,-0.01613238,0.0780535,-1.78573835,3.09021211,-54.51622391,-14.11867905,-85.79362488,0.17809306,-2.67100143,-4.39823961,0.99899232,-0.00065825,0.02334919,0.03832578,-0.01179122,-0.00375629,-0.00243091,0,0,0,0,1,1
4,0.38,38,0.01005134,-0.89846134,-0.41298905,-2.8203795,-3.08685207,0.35864338,-28.58813095,27.41888237,-111.1955566,2.01471877,0.2479649,3.67707253,0.99932969,-0.01750232,-0.0027265,-0.03203994,0.00075439,-0.00933172,-0.01082932,0,0,0,0,1,1
1,0.39,39,-0.12339327,-1.01085806,0.08999451,0.1576833,0.85069036,-1.40192771,-52.20695496,5.55393171,-99.06459808,0.33923885,6.03549957,2.86099315,0.99830157,-0.00164114,-0.05270247,-0.02477374,0.03596469,0.02392324,0.02510748,0,0,0,0,1,1
4,0.39,39,0.01139946,-0.89834946,-0.41647097,-3.17543554,-2.10018754,0.38904092,-29.08506203,28.06196976,-111.1663208,1.98277283,0.23580092,3.65971565,0.99933958,-0.01722753,-0.00260887,-0.03189117,-0.00082039,-0.01197252,-0.00940375,0,0,0,0,1,1
1,0.4,40,-0.12615798,-0.99672204,0.06080632,-1.16462505,1.00973988,-2.23367429,-51.91464615,5.81701231,-99.8830719,0.19303611,5.65169573,2.86486435,0.99847263,-0.00044957,-0.04932693,-0.02488459,0.04020248,-0.00363414,0.00991263,0,0,0,0,1,1
4,0.4,40,0.01684889,-0.9027372,-0.41354421,-3.26635933,-1.09528983,0.36883098,-29.40660667,28.44197655,-111.0201721,1.95002079,0.22793563,3.6514473,0.99934685,-0.01694428,-0.00252994,-0.03182098,-0.00641846,-0.00684622,-0.00674355,0,0,0,0,1,1
1,0.41,41,-0.09832217,-0.98538345,0.04581932,-0.58043128,-0.98114365,-2.93396473,-52.17772675,5.67085648,-99.8830719,0.18795952,5.68159533,2.85592103,0.99846166,-0.00040267,-0.04958631,-0.0248081,0.01034705,-0.01602262,-0.00780211,0,0,0,0,1,1
4,0.41,41,0.0171153,-0.89865416,-0.40919125,-3.81500697,0.15018046,0.48907956,-29.40660667,28.44197655,-111.0201721,1.91189885,0.22408585,3.65507364,0.99935138,-0.01661281,-0.00248631,-0.03185401,-0.00681323,-0.00411459,-0.01234856,0,0,0,0,1,1
1,0.42,42,-0.0635295,-0.99182552,0.05480481,1.36875188,-0.83685964,-2.82236099,-51.73925781,5.78778124,-100.0292282,0.20227674,5.71027851,2.8520062,0.99845004,-0.00052287,-0.04983932,-0.02476704,-0.02461426,-0.00755093,-0.00743629,0,0,0,0,1,1
4,0.42,42,0.01561714,-0.89394194,-0.40891936,-4.54013014,0.87615627,0.53118652,-29.14352417,27.88658333,-110.6986237,1.78791559,0.27889335,3.7004838,0.99935526,-0.01551512,-0.00293597,-0.03224521,-0.00513368,-0.00486398,-0.01674122,0,0,0,0,1,1
1,0.43,43,-0.05180162,-1.00401664,0.06754113,3.08697176,1.63248622,-1.89708257,-51.97310638,3.53697753,-99.64922333,0.23162858,5.72816038,2.87509441,0.99843711,-0.00076465,-0.05000161,-0.02495494,-0.03817336,0.0039973,0.00309994,0,0,0,0,1,1
4,0.43,43,0.01332589,-0.88443476,-0.40771151,-4.91201019,1.23940396,0.51743001,-28.7927494,28.32505035,-110.8740158,1.73895633,0.2792975,3.71422577,0.999358,-0.01508768,-0.00292753,-0.03236626,-0.00217087,-0.00611658,-0.02587566,0,0,0,0,1,1
1,0.44,44,-0.07283005,-1.00697041,0.06918874,2.14019966,2.59398341,-1.26644576,-51.97310638,3.53697753,-99.64922333,0.25068191,5.73913383,2.90547919,0.99842548,-0.00091497,-0.05010163,-0.02521103,-0.01786213,0.00504306,0.01006146,0,0,0,0,1,1
4,0.44,44,0.01229247,-0.87777817,-0.40583855,-4.27552223,1.01524198,0.53453821,-28.93890572,27.50657654,-110.9324722,1.6963402,0.27863115,3.72595787,0.99936014,-0.01471591,-0.00291119,-0.03246974,-0.00118701,-0.00656484,-0.03270651,0,0,0,0,1,1
1,0.45,45,-0.0923375,-1.00400496,0.07408006,0.65036553,1.23815012,-0.73409826,-51.65156174,6.37240553,-100.1461563,0.40644178,5.67852116,2.87113023,0.99845713,-0.00230044,-0.04960705,-0.02484616,0.00165317,0.00928494,0.01108812,0,0,0,0,1,1
4,0.45,45,0.0137316,-0.8745994,-0.39943004,-3.46433759,0.65406156,0.39398408,-29.78661156,28.96813774,-111.4878693,1.66177559,0.27775335,3.73376441,0.99936235,-0.01441452,-0.00289472,-0.03253881,-0.00267488,-0.00156577,-0.03839755,0,0,0,0,1,1
1,0.46,46,-0.09364226,-1.00146663,0.08847914,0.92593741,0.4763937,-0.26251477,-51.62233353,6.34317446,-100.4092331,0.41525733,5.68081331,2.87773895,0.99845445,-0.00237389,-0.04962905,-0.02489983,0.00243892,0.02173408,0.00961458,0,0,0,0,1,1
4,0.46,46,0.01763398,-0.87893945,-0.4000701,-2.47433567,-0.17522506,0.33422828,-29.37737465,28.70505714,-111.4294052,1.63703799,0.27398077,3.73371768,0.99936551,-0.01419986,-0.00285479,-0.0325395,-0.00659353,0.00027823,-0.03421032,0,0,0,0,1,1
1,0.47,47,-0.086744,-1.00025666,0.08965045,1.56061304,-0.21136945,-0.13690354,-51.94387436,6.6354866,-100.4676971,0.43104854,5.68229771,2.87868667,0.99845338,-0.00251074,-0.04964545,-0.02490119,-0.00409921,0.02274414,0.00720631,0,0,0,0,1,1
4,0.47,47,0.0194375,-0.8862409,-0.40545353,-0.93787867,-1.67774081,0.09321584,-29.37737465,28.70505714,-111.4294052,1.62040961,0.35934836,3.76429653,0.99935716,-0.01402958,-0.00359831,-0.032796,-0.00804389,-0.00102447,-0.02527795,0,0,0,0,1,1
1,0.48,48,-0.07398275,-1.00183547,0.07871426,1.67507231,-2.15615821,-0.19190066,-51.47617722,5.93393755,-99.21075439,0.44975471,5.68563223,2.86073852,0.99845529,-0.00268078,-0.04967814,-0.02473654,-0.01676255,0.011422,0.00572999,0,0,0,0,1,1
2,0.48,36,-0.01284243,-1.00112879,-0.00888848,-0.13199277,-2.33470821,0.63915116,-54.45775986,-13.62174797,-85.70593262,0.25990576,-3.05571508,-4.51505756,0.99886847,-0.00121526,0.02673152,0.03931657,-0.02519896,0.00211534,0.00226491,0,0,0,0,1,1
4,0.48,48,0.02040345,-0.89729095,-0.40466088,1.33903313,-3.03972816,-0.21166636,-29.52353096,27.97427559,-111.1955566,1.63342881,0.34863675,3.73568368,0.99936396,-0.01414707,-0.00350509,-0.0325474,-0.00789678,0.00458337,-0.01570138,0,0,0,0,1,1
1,0.49,49,-0.05772688,-1.00230789,0.06593068,1.23783278,-4.33321571,-0.32043725,-51.73925781,6.34317446,-100.2046204,0.46602502,5.69172239,2.82061172,0.99846089,-0.00283862,-0.04973373,-0.02437958,-0.03258567,-0.00166603,0.00240977,0,0,0,0,1,1
2,0.49,37,-0.02810697,-0.99954379,-0.01123238,-0.41989017,-3.05566502,0.61628163,-54.45775986,-13.62174797,-85.70593262,0.25765607,-2.99893379,-4.54750586,0.99887043,-0.00120776,0.02623615,0.03960158,-0.0097971,-0.0002169,0.00047578,0,0,0,0,1,1
4,0.49,49,0.02200706,-0.90601325,-0.40368968,3.29627466,-4.02063131,-0.58194047,-29.46506882,28.58813095,-110.6693955,1.66590035,0.33723378,3.69648337,0.99937117,-0.01443467,-0.00340993,-0.03220599,-0.00965051,0.00885541,-0.00828165,0,0,0,0,1,1
1,0.5,50,-0.0428085,-1.00858188,0.0626079,1.00426567,-5.53463316,-0.6568622,-51.73925781,6.34317446,-100.2046204,0.38795164,6.2589922,2.80765963,0.99820781,-0.00204198,-0.05465896,-0.02427755,-0.04581205,-0.00522658,0.00583642,0,0,0,0,1,1
2,0.5,38,-0.03594567,-0.99571073,-0.00665673,-0.52521133,-2.22842383,0.6795972,-54.04852295,-14.08944702,-85.5305481,0.25323069,-3.00597024,-4.56966114,0.99886107,-0.00116166,0.02629618,0.03979551,-0.00130949,0.00435584,-0.00358429,0,0,0,0,1,1
4,0.5,50,0.02411516,-0.91570097,-0.40498778,4.86583376,-4.70858145,-0.84540546,-29.69891739,27.50657654,-111.1370926,1.71398735,0.32540554,3.64981699,0.99937844,-0.01485873,-0.00331424,-0.03179913,-0.01190771,0.01121898,0.00101825,0,0,0,0,1,1
1,0.51,51,-0.03724901,-1.01122165,0.05426013,0.54197079,-5.64400387,-0.98604071,-51.21309662,5.6416254,-99.47383881,0.3978343,6.27255392,2.75367785,0.99821252,-0.00215096,-0.05477818,-0.02380203,-0.04420453,-0.01269232,0.00767039,0,0,0,0,1,1
2,0.51,39,-0.04327427,-0.99510086,-0.00801456,-0.59365666,-0.97133332,0.78253537,-53.9900589,-16.07716942,-85.15054321,0.24766088,-3.0138998,-4.57920647,0.99885607,-0.00110815,0.02636345,0.03987977,0.00587589,0.00307234,-0.00427781,0,0,0,0,1,1
4,0.51,51,0.02332846,-0.91906112,-0.40489301,5.00373983,-4.49877405,-1.05022228,-29.61122513,28.06196976,-111.4294052,1.76349556,0.3163527,3.60419464,0.9993847,-0.01529432,-0.00324294,-0.03140103,-0.01127973,0.01190993,0.00401171,0,0,0,0,1,1
1,0.52,52,-0.05435723,-1.01124895,0.05160229,0.24268733,-6.1167984,-0.8281523,-52.32388306,6.60625553,-100.0876923,0.40509859,6.28486681,2.6943717,0.99821866,-0.00224005,-0.05488579,-0.02328142,-0.02714728,-0.01549501,0.01077774,0,0,0,0,1,1
2,0.52,40,-0.04768288,-0.99577594,-0.01049464,-0.62599421,0.7189827,0.76784635,-54.31160355,-13.30020428,-85.38439178,0.24112794,-3.02149916,-4.57182026,0.9988569,-0.00105026,0.02642735,0.03981667,0.01016014,0.00071779,-0.0036248,0,0,0,0,1,1
4,0.52,52,0.02060096,-0.92319834,-0.40355334,4.53912163,-4.11588144,-1.37705243,-29.61122513,28.06196976,-111.4294052,1.96862257,0.39598101,3.59750152,0.99935573,-0.0170616,-0.00399258,-0.0313248,-0.00827676,0.01343158,0.00716465,0,0,0,0,1,1
1,0.53,53,-0.07775446,-1.00779378,0.05281409,0.30878147,-7.35025549,-0.25121617,-51.79771805,5.72931862,-100.2923126,0.41401267,6.29224539,2.62264538,0.99822932,-0.00235057,-0.05495042,-0.02265202,-0.00337124,-0.01420886,0.01186818,0,0,0,0,1,1
2,0.53,41,-0.04613498,-0.99486125,-0.00654504,-0.71378404,1.86082995,0.62494946,-54.48699188,-13.91405964,-85.32592773,0.23327871,-3.02753878,-4.55301094,0.99886221,-0.00098408,0.02647711,0.03965437,0.008478,0.00477664,-0.00457125,0,0,0,0,1,1
4,0.53,53,0.01755702,-0.92831087,-0.3995803,4.0919404,-3.28294897,-1.64492857,-29.5819931,28.35428238,-111.6340256,2.00904989,0.39753282,3.56054926,0.99935961,-0.01741504,-0.00401155,-0.03100089,-0.00412357,0.01642178,0.01007911,0,0,0,0,1,1
1,0.54,54,-0.09382801,-1.00600541,0.06213094,1.58645964,-7.94369078,-0.05782417,-51.79771805,5.75855017,-99.8830719,0.43621075,6.29809046,2.54735446,0.99824077,-0.0025789,-0.05500405,-0.02198524,0.01275185,-0.00509634,0.01368641,0,0,0,0,1,1
2,0.54,42,-0.04135033,-0.99749649,-0.01242457,-0.83893889,2.50537968,0.37173027,-54.48699188,-13.91405964,-85.32592773,0.17036012,-3.06994367,-4.52118731,0.9988637,-0.00042838,0.02682484,0.03939056,0.00348681,-0.00067685,-0.00176084,0,0,0,0,1,1
4,0.54,54,0.01318455,-0.9309743,-0.39784506,3.53937054,-2.26020408,-1.8409425,-28.85121346,27.8573513,-110.9909363,2.04405713,0.40508386,3.53216338,0.99936169,-0.0177193,-0.00408248,-0.03075093,0.00035119,0.01851028,0.01169812,0,0,0,0,1,1
1,0.55,55,-0.09774766,-1.00757098,0.06924463,1.42738438,-6.55515814,-0.3688848,-51.79771805,5.75855017,-99.8830719,0.48195225,6.08852816,2.47178626,0.99835253,-0.00305345,-0.05318519,-0.02131479,0.01540886,0.00140649,0.01628659,0,0,0,0,1,1
2,0.55,43,-0.03968594,-0.99576706,-0.02283248,-1.00087285,2.68485594,0.11342739,-54.39929962,-14.06021595,-85.44285583,0.1593098,-3.07073712,-4.49414396,0.99887288,-0.00033811,0.02682788,0.0391574,0.0012593,-0.01022308,-0.00327728,0,0,0,0,1,1
4,0.55,55,0.00793219,-0.92628986,-0.39390489,2.74216413,-1.42972624,-1.8845458,-29.87430573,28.82198143,-111.4294052,2.07119656,0.41644037,3.51123095,0.99936277,-0.01795369,-0.00418553,-0.03056561,0.005744,0.01944291,0.00574217,0,0,0,0,1,1
1,0.56,56,-0.09838463,-1.00360966,0.07223824,0.10626323,-3.8943243,-0.67629826,-51.62233353,5.96316862,-99.64922333,0.48620921,6.09790897,2.43406177,0.99835503,-0.00310629,-0.05326668,-0.02098371,0.01406413,0.00411101,0.01240983,0,0,0,0,1,1
2,0.56,44,-0.03337511,-0.99161071,-0.02060831,-0.73545849,1.70362949,-0.07577109,-54.3700676,-15.96024513,-85.88131714,0.1512956,-3.06975818,-4.47697639,0.9988789,-0.00027261,0.02681657,0.03900965,-0.00510604,-0.00789522,-0.00737216,0,0,0,0,1,1
4,0.56,56,0.00101633,-0.91969997,-0.39229229,1.29582083,-0.55098218,-1.61763942,-29.8450737,28.20812607,-110.9324722,2.08399916,0.428958,3.49951005,0.99936354,-0.01806243,-0.00429626,-0.03046092,0.01282307,0.01765732,-0.00091406,0,0,0,0,1,1
1,0.57,57,-0.093977,-1.00012553,0.08000834,-0.71254539,-1.26228964,-1.0923692,-51.44694519,6.54779291,-100.2630768,0.48006251,6.10967398,2.42101097,0.99835217,-0.00305662,-0.05336771,-0.02087232,0.01049016,0.01212865,0.00863951,0,0,0,0,1,1
2,0.57,45,-0.030355,-0.99214721,-0.01414026,-0.66696477,0.42892677,-0.16143975,-54.19467926,-13.5340538,-86.26132965,0.14446567,-3.06808972,-4.47260618,0.9988808,-0.00021466,0.02679969,0.03897319,-0.00809379,-0.00129842,-0.00689192,0,0,0,0,1,1
4,0.57,57,-0.00162017,-0.91325241,-0.38866127,0.11497965,0.27600858,-1.31545603,-29.40660667,26.9219532,-111.1078644,2.29148531,0.27390742,3.45272112,0.99934489,-0.01991451,-0.00299112,-0.03007222,0.01491104,0.01708247,-0.00828452,0,0,0,0,1,1
1,0.58,58,-0.08911623,-1.00667167,0.083152,-0.73398614,0.56224984,-1.38846028,-51.30078888,6.16778708,-99.97076416,0.47218212,6.12315893,2.42609644,0.9983452,-0.00298308,-0.05348389,-0.02091968,0.00467952,0.01500629,0.01435247,0,0,0,0,1,1
2,0.58,46,-0.03685495,-0.99220234,-0.00775064,-0.52649522,-0.41325366,-0.34765303,-54.19467926,-13.5340538,-86.26132965,0.13934048,-3.06467104,-4.47670412,0.99888033,-0.00017019,0.02676816,0.03901018,-0.00155164,0.00518896,-0.00703736,0,0,0,0,1,1
4,0.58,58,-0.0014183,-0.91048372,-0.38978305,-0.51708502,0.60149014,-1.0007267,-29.40660667,26.9219532,-111.1078644,2.28632522,0.28549331,3.45419765,0.99934518,-0.01986642,-0.00309106,-0.03008321,0.01270809,0.01221047,-0.01018396,0,0,0,0,1,1
1,0.59,59,-0.09054483,-1.00393701,0.07199775,-1.08904159,1.61784673,-1.12211978,-50.51154709,4.50160789,-100.0584641,0.4598929,6.13328123,2.44073772,0.9983381,-0.00286728,-0.0535702,-0.02105252,0.00692729,0.00421966,0.01130967,0,0,0,0,1,1
2,0.59,47,-0.05031032,-0.99624687,-0.01079539,-0.33225051,-0.40380466,-0.87396193,-53.87313461,-14.46945286,-85.55977631,0.1239028,-3.2865994,-4.47607899,0.99882692,0.00003989,0.02869737,0.03900414,0.01107663,0.00233313,-0.00310203,0,0,0,0,1,1
4,0.59,59,0.00119814,-0.91209894,-0.39075527,-0.726578,1.06690657,-0.75140911,-29.46506882,28.41274452,-110.6986237,2.27913237,0.29668596,3.46095276,0.99934453,-0.01980056,-0.00318795,-0.03014037,0.01030301,0.01217332,-0.0082924,0,0,0,0,1,1
1,0.6,60,-0.09109054,-0.9944604,0.06254976,-0.71844554,1.81286383,-0.59881884,-50.51154709,4.50160789,-100.0584641,0.41670278,6.03948593,2.45542407,0.99837977,-0.00250181,-0.05274541,-0.02120456,0.00902778,-0.00431201,0.00153303,0,0,0,0,1,1
2,0.6,48,-0.07158649,-0.99954355,-0.01610347,-0.1531387,0.4114511,-1.18088198,-54.31160355,-13.30020428,-85.93978119,0.12220017,-3.27473927,-4.47209454,0.99883127,0.00004969,0.02859341,0.03897006,0.02957577,-0.00272262,0.00010869,0,0,0,0,1,1
4,0.6,60,0.00597729,-0.91077924,-0.3958182,-0.50969589,1.37595654,-0.34590912,-29.31891251,28.23735809,-111.0786285,2.27416348,0.3054249,3.47216249,0.99934226,-0.0197546,-0.00326478,-0.03023675,0.00570063,0.00714429,-0.00721394,0,0,0,0,1,1
1,0.61,61,-0.08437518,-0.99735683,0.0673302,-0.0739079,1.80298316,-0.56947362,-52.29465103,5.99239969,-100.1169205,0.41445261,6.04397011,2.47343206,0.9983744,-0.00247307,-0.05278445,-0.0213623,0.00062564,0.00080666,0.00325897,0,0,0,0,1,1
2,0.61,49,-0.06440723,-0.99802846,-0.00919444,0.38454607,1.28974545,-1.36858165,-54.22391129,-13.56328583,-86.0859375,0.12553145,-3.2608757,-4.45941591,0.99883896,0.00001278,0.02847371,0.03885899,0.02260459,0.00413152,-0.00141734,0,0,0,0,1,1
4,0.61,61,0.01156821,-0.91058558,-0.39815915,0.07735576,1.32272565,-0.04833747,-29.72814941,28.93890572,-111.3124771,2.27506757,0.31123006,3.48405218,0.99933881,-0.0197606,-0.0033177,-0.0303394,0.00023758,0.00498354,-0.00631868,0,0,0,0,1,1
1,0.62,62,-0.07811446,-0.99667937,0.07625161,-0.8560645,1.48132145,-0.85212809,-52.41157532,6.28471184,-100.3507767,0.40460601,6.0515027,2.48697805,0.99836856,-0.0023796,-0.05284852,-0.02148455,-0.00538719,0.00986952,0.00195114,0,0,0,0,1,1
2,0.62,50,-0.04554782,-1.0041256,-0.00505466,-0.5419113,2.91669536,-1.25203657,-54.01929092,-14.00175381,-86.17362976,0.11889409,-3.24796867,-4.43029642,0.99885201,0.00005904,0.02835896,0.03860706,0.00406787,0.00839008,0.00488786,0,0,0,0,1,1
4,0.62,62,0.01183121,-0.91095799,-0.39531559,0.36615339,1.14669991,0.36765426,-29.61122513,28.47120667,-111.0201721,2.33667088,0.3465257,3.49890876,0.99932337,-0.02028798,-0.00364444,-0.03046087,0.00017006,0.00739471,-0.00722463,0,0,0,0,1,1
1,0.63,63,-0.07501551,-0.99897152,0.07605189,-0.63510936,1.13663375,-1.16053462,-51.97310638,6.43086815,-100.1753845,0.39725062,6.06233788,2.49774528,0.99836171,-0.00230848,-0.05294176,-0.02158131,-0.00869022,0.00968569,0.00362239,0,0,0,0,1,1
2,0.63,51,-0.02408745,-1.00133193,-0.01182088,-0.99046928,2.64800787,-1.39018762,-54.01929092,-14.00175381,-86.17362976,0.10789526,-3.233706,-4.40381002,0.99886441,0.00014358,0.02823097,0.03837916,-0.01719077,0.00177734,0.00251212,0,0,0,0,1,1
4,0.63,63,0.01742507,-0.91008186,-0.39242321,0.74486828,0.55465126,0.830024,-29.61122513,28.47120667,-111.0201721,2.34423518,0.34118024,3.50728965,0.99931997,-0.02035511,-0.00360133,-0.03053467,-0.00503997,0.00875382,-0.00921479,0,0,0,0,1,1
1,0.64,64,-0.07510939,-1.00864255,0.07012441,-0.62198317,1.6061312,-1.36826873,-51.82695007,5.6416254,-100.2923126,0.38961938,6.07493687,2.5132997,0.99835312,-0.00223238,-0.0530504,-0.02171985,-0.01013181,0.00331451,0.01279863,0,0,0,0,1,1
2,0.64,52,-0.01134335,-1.00334382,-0.01293031,-0.74470609,0.8047145,-1.57185483,-54.89622879,-13.70944118,-85.88131714,0.142837,-2.90051532,-4.40547466,0.99894148,-0.0002724,0.02533823,0.03839168,-0.02825528,0.0006692,0.00464589,0,0,0,0,1,1
4,0.64,64,0.01997692,-0.91224188,-0.38480297,1.38713968,0.13688861,1.2267282,-29.1727562,28.09120178,-111.5170975,2.3581717,0.33051693,3.51340938,0.99931604,-0.02047931,-0.00351314,-0.03058952,-0.00775582,0.01633198,-0.01061592,0,0,0,0,1,1
1,0.65,65,-0.08097564,-1.01359189,0.06554008,-1.07101715,3.06038213,-1.20766222,-51.82695007,5.6416254,-100.2923126,0.3646327,6.09718275,2.54407644,0.99833739,-0.00199611,-0.05323999,-0.02199871,-0.0049942,-0.00131262,0.01850994,0,0,0,0,1,1
2,0.65,53,-0.0153456,-1.00216317,-0.00834963,-0.93057102,-1.87738156,-1.84614086,-54.106987,-13.70944118,-85.82286072,0.13418819,-2.88230658,-4.42437172,0.9989391,-0.00019896,0.02517664,0.03855865,-0.01982296,0.00479848,0.00309683,0,0,0,0,1,1
4,0.65,65,0.02297494,-0.91905165,-0.3798728,1.621611,0.13455553,1.57551241,-28.96813774,28.58813095,-111.0494003,2.37446237,0.31665185,3.52089953,0.99931145,-0.02062487,-0.00339793,-0.03065686,-0.01095096,0.02349792,-0.00665287,0,0,0,0,1,1
1,0.66,66,-0.08462138,-1.00813699,0.05999182,-1.6480335,4.65201378,-0.88535446,-51.65156174,5.52470016,-100.1461563,0.34422362,6.1029911,2.58739591,0.99832666,-0.00179702,-0.05328737,-0.02238538,-0.0000482,-0.00606657,0.01354885,0,0,0,0,1,1
2,0.66,54,-0.01892534,-0.9998585,-0.00551133,-1.7033534,-3.28188944,-1.94174862,-53.25928116,-13.8555975,-85.70593262,0.11830962,-2.86332583,-4.45722342,0.99893218,-0.00005977,0.02500585,0.03884886,-0.01595254,0.00784253,0.00067729,0,0,0,0,1,1
4,0.66,66,0.02485132,-0.92634839,-0.38344118,2.06533909,0.23794234,1.7530396,-30.07892418,28.29582024,-111.4294052,2.3952136,0.30157733,3.53002071,0.99930555,-0.02080963,-0.00327368,-0.03073855,-0.01303494,0.02318984,0.00149376,0,0,0,0,1,1
1,0.67,67,-0.08383068,-1.00259948,0.05337431,-1.71648562,4.39054585,-0.85984164,-51.82695007,5.29085064,-100.4092331,0.32336983,6.1087327,2.62799287,0.99831635,-0.00159531,-0.05333389,-0.02274856,0.0003776,-0.01197314,0.00759257,0,0,0,0,1,1
2,0.67,55,-0.0230094,-0.9967621,-0.00653925,-1.57867634,-3.38496089,-2.01421738,-54.45775986,-14.03098488,-86.23209381,0.10370279,-2.84364557,-4.4911418,0.99892497,0.00006823,0.02482932,0.03914804,-0.0115765,0.00702397,-0.00248203,0,0,0,0,1,1
4,0.67,67,0.02903947,-0.92889851,-0.3865639,2.75209022,0.60372061,1.67488801,-29.28968048,28.1204319,-111.400177,2.66726398,0.47273985,3.55830574,0.99924165,-0.0231347,-0.0048449,-0.03094243,-0.01663707,0.02001175,0.00525706,0,0,0,0,1,1
1,0.68,68,-0.08413499,-1.00087893,0.04421178,-1.83322704,4.07711172,-1.68348873,-51.68079376,5.70008755,-100.2338486,0.30156946,6.12291384,2.66580343,0.99830252,-0.0013849,-0.05345356,-0.02308763,0.00128647,-0.02065399,0.00544633,0,0,0,0,1,1
2,0.68,56,-0.03406017,-0.99848652,-0.0187728,-1.63233912,-3.41931772,-1.99656582,-54.45775986,-14.03098488,-86.23209381,0.08855355,-2.82415915,-4.52539682,0.99891734,0.000201,0.02465422,0.03945023,-0.00015439,-0.00491051,-0.00075363,0,0,0,0,1,1
4,0.68,68,0.02812679,-0.93203914,-0.3870438,3.61556196,1.48885524,1.6922617,-29.8450737,28.55890083,-110.8155518,2.70372939,0.46317151,3.57847714,0.99922913,-0.02345444,-0.00477544,-0.03111877,-0.0134858,0.01719897,0.00846372,0,0,0,0,1,1
1,0.69,69,-0.08656673,-1.00105047,0.03631599,-2.95296693,5.17679977,-2.44762754,-51.68079376,5.29085064,-99.8830719,0.26761973,6.14404202,2.71282625,0.99828345,-0.00106282,-0.05363122,-0.02351245,0.00406509,-0.02804,0.00564371,0,0,0,0,1,1
2,0.69,57,-0.03661441,-0.99899393,-0.01652785,-1.48752439,-2.71465969,-1.95486867,-53.93159866,-14.2648344,-86.11517334,0.05450841,-2.81622338,-4.55097342,0.99891013,0.00050052,0.02457321,0.03968061,0.00269244,-0.00232112,-0.00033468,0,0,0,0,1,1
4,0.69,69,0.02312573,-0.93683851,-0.38406539,4.56830883,2.719666,1.83691585,-29.8450737,28.55890083,-110.8155518,2.7498734,0.45716462,3.61044741,0.99921107,-0.02385712,-0.00474225,-0.03139687,-0.00859436,0.02123909,0.01145772,0,0,0,0,1,1
1,0.7,70,-0.08680978,-1.00349164,0.04282834,-2.70470834,6.72610092,-2.32341528,-51.68079376,5.29085064,-99.8830719,0.06737756,6.14729023,2.78646564,0.99826688,0.00071675,-0.0536179,-0.0242476,0.00405353,-0.02035364,0.00848794,0,0,0,0,1,1
2,0.7,58,-0.03279359,-1.00351524,-0.01849215,-1.39446747,-1.23496449,-1.85104847,-53.9900589,-13.97252274,-86.23209381,0.04098472,-2.79789138,-4.56339645,0.99890971,0.00061471,0.02440866,0.03979202,-0.00087939,-0.00371822,0.00426473,0,0,0,0,1,1
4,0.7,70,0.01615999,-0.94460005,-0.37932613,4.55030775,4.25980234,2.06842756,-28.73428726,27.79888916,-111.5170975,2.79605126,0.45513099,3.6574626,0.99918848,-0.0242584,-0.00474712,-0.03180535,-0.00166067,0.02810002,0.01632403,0,0,0,0,1,1
1,0.71,71,-0.07869612,-1.008214,0.05759346,-0.97575772,7.07591009,-1.71824002,-52.03157043,5.23238802,-100.1753845,0.05174039,6.16017294,2.85542846,0.99824595,0.00088804,-0.0537263,-0.02485548,-0.00490308,-0.00332333,0.01245706,0,0,0,0,1,1
2,0.71,59,-0.02752647,-1.00508547,-0.02629708,-1.33798194,-0.20385614,-1.7171644,-54.3700676,-16.01870728,-85.73516083,0.02768814,-2.78075123,-4.56548977,0.99891245,0.0007251,0.02425461,0.03981328,-0.00581317,-0.01126449,0.00602067,0,0,0,0,1,1
4,0.71,71,0.00622624,-0.94672674,-0.37984908,3.50764799,5.9712677,2.29755545,-28.99736977,28.23735809,-111.8678742,2.83204007,0.45774525,3.72116733,0.99916279,-0.02456881,-0.00479357,-0.03235876,0.00829941,0.02786536,0.01843361,0,0,0,0,1,1
1,0.72,72,-0.08082221,-1.00694215,0.06545303,0.29815593,6.58631516,-1.08854795,-51.82695007,5.58316278,-100.7600098,0.04931654,6.16707325,2.92159057,0.99822813,0.00094171,-0.05378534,-0.02543286,-0.00250753,0.00471302,0.01208367,0,0,0,0,1,1
2,0.72,60,-0.0285125,-1.00190079,-0.03042736,-1.01510632,-0.14086425,-1.5800823,-54.42852783,-13.97252274,-85.91055298,0.01758011,-2.76497316,-4.56698132,0.9989152,0.00080805,0.02411355,0.03982857,-0.0045878,-0.01523391,0.00287188,0,0,0,0,1,1
4,0.72,72,-0.00510271,-0.94467342,-0.38309503,2.09413671,7.90697336,2.56300974,-29.05583191,28.32505035,-111.6340256,3.10803699,0.22651204,3.82752204,0.99907458,-0.02703824,-0.00288052,-0.03332929,0.0186903,0.02246018,0.01802682,0,0,0,0,1,1
1,0.73,73,-0.08410216,-1.00302625,0.07628512,1.08792758,4.9097991,-0.84474277,-52.17772675,5.70008755,-100.5846252,0.05619505,6.17254639,2.97256565,0.99821424,0.00090695,-0.05383416,-0.0258736,0.00142044,0.01569009,0.00950094,0,0,0,0,1,1
2,0.73,61,-0.01971048,-1.0016793,-0.02784939,-0.76553768,-0.60894001,-1.57081032,-54.42852783,-13.97252274,-85.91055298,0.0101224,-2.74936652,-4.57321024,0.99891633,0.00086894,0.02397486,0.03988458,-0.01312444,-0.01251519,0.00273137,0,0,0,0,1,1
4,0.73,73,-0.01223014,-0.93787175,-0.38580838,0.96528757,8.50967979,2.75778985,-29.37737465,28.47120667,-111.341713,3.11862302,0.23450363,3.91655827,0.99904579,-0.0271259,-0.00297435,-0.03410337,0.02280303,0.01345376,0.01324316,0,0,0,0,1,1
1,0.74,74,-0.08176097,-1.0018568,0.08849933,0.61488986,2.78455424,-1.09219313,-51.53463745,5.78778124,-100.0292282,0.06004712,6.18176746,3.00183725,0.99820328,0.00088925,-0.05391511,-0.02612661,-0.0006639,0.02785351,0.00864191,0,0,0,0,1,1
2,0.74,62,-0.00967369,-1.00082684,-0.02278026,-0.08528157,-0.9996478,-1.33806121,-53.75621033,-14.52791595,-85.79362488,-0.02299106,-2.47919726,-4.58441305,0.99896586,0.00106567,0.02160805,0.03999084,-0.02180428,-0.00726745,0.00189004,0,0,0,0,1,1
4,0.74,74,-0.01741359,-0.92975706,-0.38916188,0.01519796,8.21173668,2.95737505,-29.37737465,28.47120667,-111.341713,3.11968112,0.23947941,4.0036912,0.99901927,-0.02713134,-0.00303867,-0.03486181,0.0280564,0.00678575,0.00741328,0,0,0,0,1,1
1,0.75,75,-0.07826562,-1.00182283,0.09730764,-0.39303735,1.95642757,-1.47822797,-51.53463745,5.78778124,-100.0292282,0.4992007,6.23118353,2.99877095,0.99817675,-0.00292627,-0.05444522,-0.02589061,-0.00382262,0.03474448,0.00851526,0,0,0,0,1,1
2,0.75,63,-0.0187321,-0.99872005,-0.01683247,0.16331176,-2.12461019,-1.24913156,-54.13621521,-14.5863781,-85.55977631,-0.02075037,-2.46704626,-4.60589314,0.99896061,0.00104593,0.02150271,0.04017774,-0.00920461,-0.00094619,-0.00060901,0,0,0,0,1,1
4,0.75,75,-0.02551626,-0.92008716,-0.39589903,-0.75757772,7.46383953,3.13371539,-28.9096756,28.20812607,-110.8740158,3.1129818,0.23990397,4.08468676,0.9989959,-0.02707065,-0.00305947,-0.035568,0.03616096,-0.00346269,0.00165482,0,0,0,0,1,1
1,0.76,76,-0.07786912,-0.99596983,0.09902936,-1.21274245,3.14600801,-1.6704967,-51.68079376,5.6416254,-100.0292282,0.48445582,6.24573851,3.0286212,0.99816352,-0.00278027,-0.0545694,-0.02615691,-0.00241507,0.03124288,0.00290728,0,0,0,0,1,1
2,0.76,64,-0.03608083,-0.99795729,-0.00784328,0.59007841,-3.07396579,-1.38726091,-54.01929092,-14.64484024,-85.64746857,-0.0139824,-2.45365858,-4.63697624,0.99895227,0.00098804,0.02138811,0.04044754,0.0083503,0.0079341,-0.00178444,0,0,0,0,1,1
4,0.76,76,-0.03098469,-0.91155791,-0.40079522,-1.26596367,6.61290693,3.25763965,-29.1727562,28.35428238,-111.0494003,3.10109377,0.23586273,4.15837479,0.99897569,-0.02696632,-0.00303789,-0.03621168,0.04155208,-0.01144653,-0.00388206,0,0,0,0,1,1
1,0.77,77,-0.08616403,-0.99104363,0.09551311,-0.16196482,4.82607317,-1.2707957,-51.76848984,5.75855017,-100.0584641,0.47893783,6.25515938,3.07674789,0.99814808,-0.00270706,-0.05465134,-0.02657829,0.00689197,0.02819237,-0.00055175,0,0,0,0,1,1
2,0.77,65,-0.04872157,-0.99990225,0.00472412,0.42949817,-2.22186661,-1.65513039,-53.8439064,-14.00175381,-86.05670929,-0.00907542,-2.437464,-4.65953684,0.99894738,0.00094373,0.02124848,0.0406434,0.02128017,0.02042793,-0.00023858,0,0,0,0,1,1
4,0.77,77,-0.03524404,-0.90566903,-0.39849165,-2.55212212,6.33193731,3.4210887,-28.61736298,27.97427559,-111.3124771,2.96958804,-0.29073983,4.31730318,0.99894911,-0.0259887,0.00155853,-0.03771958,0.04339863,-0.01117288,-0.0102526,0,0,0,0,1,1
1,0.78,78,-0.09758975,-0.9922381,0.0968065,0.70733666,5.28767157,-0.87987274,-51.76848984,5.11546326,-100.2338486,0.48178363,6.26035547,3.13080239,0.99813294,-0.00270482,-0.05469854,-0.02704751,0.01799692,0.02940988,0.00285152,0,0,0,0,1,1
2,0.78,66,-0.03972028,-0.99651694,0.0085027,-0.31945011,-0.7295776,-1.76929343,-53.8439064,-14.00175381,-86.05670929,-0.01206485,-2.41988659,-4.66705942,0.99894786,0.00096494,0.02109412,0.04070965,0.01252727,0.0241586,-0.00355758,0,0,0,0,1,1
4,0.78,78,-0.03540751,-0.90167505,-0.39002326,-3.52324128,7.16056633,3.56784797,-29.26045036,28.52966881,-111.3709412,2.93447399,-0.2952784,4.39740324,0.99893039,-0.0256852,0.0015917,-0.03841838,0.03661177,-0.00339375,-0.01767395,0,0,0,0,1,1
1,0.79,79,-0.10178371,-0.99469894,0.09720661,1.04308045,5.37796688,-0.29096028,-51.65156174,3.62467122,-99.97076416,0.48794147,6.2596035,3.18598366,0.99812001,-0.0027323,-0.05469477,-0.02752525,0.02167644,0.0295718,0.00607803,0,0,0,0,1,1
2,0.79,67,-0.03602288,-0.9929437,-0.01188827,0.00734553,1.64768982,-1.81471395,-54.07775497,-14.61560917,-86.17362976,-0.02904213,-2.56743145,-4.64969492,0.99892592,0.00116196,0.02237446,0.04056059,0.00836982,0.00381045,-0.00673904,0,0,0,0,1,1
4,0.79,79,-0.03164582,-0.90357751,-0.37907779,-3.78700256,8.2322197,3.82595134,-29.1727562,28.29582024,-111.3124771,2.89672279,-0.29790166,4.48838711,0.99890786,-0.02535827,0.00160709,-0.03921156,0.03276815,0.00791717,-0.02080704,0,0,0,0,1,1
1,0.8,80,-0.10300133,-1.00128376,0.08992303,1.05804825,6.90704918,-0.02733463,-51.62233353,5.49546909,-100.2630768,0.71192956,6.00234413,3.26925802,0.99821216,-0.00470819,-0.05251103,-0.02816096,0.02056816,0.02086481,0.01222511,0,0,0,0,1,1
2,0.8,68,-0.04580423,-0.99574655,-0.01329022,0.11285792,1.27199042,-2.03000903,-53.90236664,-13.8555975,-86.17362976,-0.02828984,-2.54693055,-4.6373105,0.99893427,0.00114574,0.02219615,0.0404526,0.01636674,0.00266539,-0.00398463,0,0,0,0,1,1
4,0.8,80,-0.02756369,-0.90951365,-0.37590513,-4.04912901,9.6836195,4.2635746,-29.1727562,28.29582024,-111.3124771,2.85635948,-0.29873681,4.59444761,0.99887997,-0.0250082,0.00160503,-0.0401357,0.02869002,0.01407591,-0.01688943,0,0,0,0,1,1
1,0.81,81,-0.10628435,-1.00610483,0.08865703,1.64808273,9.76361275,0.05580647,-51.62233353,5.49546909,-100.2630768,0.72022712,5.99475813,3.36850905,0.99819052,-0.00473695,-0.05245111,-0.02902225,0.01950696,0.01634239,0.01716093,0,0,0,0,1,1
2,0.81,69,-0.03292789,-1.00501847,-0.00735881,-0.13858141,1.46989977,-2.30460739,-54.3700676,-14.17714119,-85.58900452,-0.03008588,-2.52364659,-4.62294388,0.99894381,0.00115043,0.02199268,0.04032784,0.00402521,0.00874927,0.00537128,0,0,0,0,1,1
4,0.81,81,-0.02851047,-0.91695845,-0.37789452,-4.04697847,11.43002033,4.70687532,-28.67582512,28.26658821,-111.3124771,2.81606054,-0.29664126,4.71830177,0.99884486,-0.0246579,0.00157423,-0.04121429,0.02969597,0.01627824,-0.00937235,0,0,0,0,1,1
1,0.82,82,-0.11032648,-1.0090214,0.08883921,1.61765277,11.96969509,0.50032574,-51.50540543,5.11546326,-99.82460785,0.72634149,5.981143,3.4891119,0.99816531,-0.00473866,-0.05233908,-0.03007093,0.02272777,0.01621431,0.02077012,0,0,0,0,1,1
2,0.82,70,-0.02800072,-1.0085845,-0.02101429,0.06168341,2.60124135,-2.08370447,-54.04852295,-14.11867905,-86.34902191,-0.03020681,-2.50239754,-4.59725618,0.99895692,0.00113912,0.02180765,0.04010404,-0.0004556,-0.00482528,0.00920627,0,0,0,0,1,1
4,0.82,82,-0.028102,-0.91884875,-0.38107055,-3.81916738,12.95412254,4.83502626,-27.79888916,27.47734642,-110.6693955,2.94522166,-0.60396314,4.82182121,0.99876535,-0.0258976,0.0041831,-0.04218675,0.02802721,0.01421507,-0.00625838,0,0,0,0,1,1
1,0.83,83,-0.10266685,-1.00385666,0.09877048,0.91931772,13.31678009,0.65888727,-51.3300209,5.61239386,-100.0584641,0.72428298,5.96499109,3.62155032,0.99813735,-0.00466473,-0.05220328,-0.03122659,0.01579687,0.02641572,0.01482083,0,0,0,0,1,1
2,0.83,71,-0.02495645,-1.00048518,-0.02805382,0.13444398,2.59533238,-1.83987284,-54.04852295,-14.11867905,-86.34902191,-0.0295848,-2.48358774,-4.57160139,0.99896944,0.00112227,0.02164415,0.03988038,-0.00328605,-0.01200818,0.00124967,0,0,0,0,1,1
4,0.83,83,-0.02130126,-0.91022104,-0.38290578,-2.93923736,14.28985023,4.84181976,-29.1727562,28.06196976,-111.400177,2.9152236,-0.59201229,4.97241974,0.99871641,-0.02563713,0.00405629,-0.0434956,0.01724486,0.00716031,-0.01303556,0,0,0,0,1,1
1,0.84,84,-0.0835809,-0.99540585,0.1087112,-0.81346989,14.5131073,0.43919486,-51.12540054,4.9108448,-100.1169205,0.7038036,5.95024109,3.76266122,0.99810559,-0.00442633,-0.05207471,-0.03246604,-0.00175324,0.03707229,0.00350226,0,0,0,0,1,1
2,0.84,72,-0.02357116,-0.98887503,-0.01447819,0.59540194,1.3046577,-2.15716839,-53.55159378,-15.81408882,-85.79362488,0.03569993,-2.40033197,-4.56200457,0.99898875,0.00052241,0.02094111,0.03978522,-0.00422845,0.00107862,-0.01057395,0,0,0,0,1,1
4,0.84,84,-0.01669404,-0.89761752,-0.38380161,-1.0848155,14.93346691,4.96467447,-29.05583191,28.44197655,-111.2540207,2.90377784,-0.57858336,5.12928629,0.99865925,-0.02553768,0.00390864,-0.04485938,0.01279615,0.00112967,-0.02393891,0,0,0,0,1,1
1,0.85,85,-0.06553103,-0.99035019,0.09522613,-0.82145053,15.38230228,-0.09966546,-51.44694519,3.30312777,-100.0584641,0.86672819,6.18934774,3.84795189,0.99796396,-0.00573583,-0.05420756,-0.03311538,-0.01750808,0.02350102,-0.00552735,0,0,0,0,1,1
2,0.85,73,-0.02822832,-0.98694068,-0.01964509,1.30898821,1.49857855,-2.66942382,-54.106987,-14.06021595,-85.55977631,0.04841863,-2.37341809,-4.54760456,0.99899864,0.00039958,0.02071095,0.03965765,0.0016469,-0.00507813,-0.01255124,0,0,0,0,1,1
4,0.85,85,-0.01115969,-0.89053309,-0.37931019,1.58580661,14.69397831,5.2173605,-29.05583191,28.44197655,-111.2540207,2.91909099,-0.56841677,5.28478479,0.99859458,-0.02567232,0.00377921,-0.04621277,0.00741794,0.00194264,-0.03224003,0,0,0,0,1,1
1,0.86,86,-0.05690284,-0.99104697,0.07740143,-0.54952884,15.28153324,-0.46869344,-51.44694519,3.30312777,-100.0584641,0.8488043,6.18272734,3.99782205,0.99792373,-0.00551087,-0.05415197,-0.03442957,-0.02281297,0.00360319,-0.00714426,0,0,0,0,1,1
2,0.86,74,-0.03695306,-0.99283773,-0.02764748,1.13257861,3.07254934,-2.82375121,-52.90850449,-14.17714119,-85.73516083,0.0589688,-2.34473181,-4.51743984,0.9990142,0.00029228,0.02046459,0.0393931,0.01095178,-0.01320183,-0.00668416,0,0,0,0,1,1
4,0.86,86,-0.01020324,-0.89173764,-0.37313956,3.34086752,13.72447968,5.5416584,-28.73428726,27.74042702,-111.1078644,2.95200205,-0.56512082,5.43254805,0.99852693,-0.0259626,0.00370374,-0.04750074,0.00655691,0.00753382,-0.03385344,0,0,0,0,1,1
1,0.87,87,-0.04532747,-0.99279433,0.05842379,-0.1378502,14.05294132,-0.8629052,-51.5931015,4.9108448,-100.1753845,0.83599097,6.18096876,4.13665438,0.99788284,-0.00533424,-0.05413932,-0.03564477,-0.03435633,-0.01518924,-0.00871893,0,0,0,0,1,1
2,0.87,75,-0.03292016,-1.00084424,-0.02123909,0.83208704,4.62518072,-2.73230696,-52.90850449,-14.17714119,-85.91055298,0.06611694,-2.3167448,-4.47167683,0.99903488,0.00021226,0.02022314,0.03899319,0.00753442,-0.00681107,0.0012623,0,0,0,0,1,1
4,0.87,87,-0.01100513,-0.89995509,-0.37180084,3.74057579,12.02318287,6.05711222,-29.02659988,26.95118332,-111.0201721,3.13075328,-0.65181601,5.50866938,0.99844837,-0.0275588,0.00436676,-0.04819018,0.00699992,0.01111417,-0.02700629,0,0,0,0,1,1
1,0.88,88,-0.03940438,-1.00063288,0.0513077,-0.50278491,11.75496197,-0.84074664,-51.82695007,5.75855017,-100.8769379,0.82138062,6.18072319,4.25213957,0.99784714,-0.00515253,-0.05413786,-0.03665733,-0.04157874,-0.0225262,-0.00256408,0,0,0,0,1,1
2,0.88,76,-0.02449071,-1.0031352,-0.01827451,0.97661358,4.91352177,-2.57316923,-54.19467926,-13.94329166,-85.91055298,0.07468481,-2.29030681,-4.42303038,0.99905598,0.00012008,0.01999562,0.0385679,-0.0003877,-0.0039376,0.00361592,0,0,0,0,1,1
4,0.88,88,-0.00709906,-0.91506284,-0.37890729,3.75074792,9.99297237,6.44408798,-28.50043869,28.03273773,-111.2247849,3.16767478,-0.67198557,5.62561083,0.99838853,-0.02789354,0.00449851,-0.04921528,0.00189105,0.00890132,-0.01013995,0,0,0,0,1,1
1,0.89,89,-0.03244911,-1.01403761,0.04720984,-0.50511879,10.64306545,-1.10644412,-51.8561821,5.55393171,-100.7892456,0.80764818,6.18397379,4.35686111,0.99781233,-0.00498239,-0.05416634,-0.03757544,-0.05084481,-0.0271552,0.00903546,0,0,0,0,1,1
2,0.89,77,-0.01462181,-1.00010252,-0.01153367,1.42244804,4.27201891,-2.60301161,-53.7269783,-14.35252857,-86.11517334,0.11989858,-2.13618779,-4.38353634,0.99909508,-0.00033247,0.01866703,0.03821808,-0.0092897,0.00240149,0.00059043,0,0,0,0,1,1
4,0.89,89,-0.0014875,-0.92955798,-0.3906464,3.24388123,8.65669441,6.59554529,-28.646595,27.94504547,-111.400177,3.19955444,-0.69884372,5.73086977,0.99833339,-0.02818707,0.00469293,-0.05014005,-0.00403536,0.00417134,0.00812228,0,0,0,0,1,1
1,0.9,90,-0.02081141,-1.01778519,0.05003096,-0.48434559,10.60892677,-1.54031324,-52.03157043,4.35545158,-100.5846252,0.54634571,6.8892169,4.30164289,0.99748951,-0.00250087,-0.06021912,-0.0371756,-0.05987717,-0.02325827,0.01103411,0,0,0,0,1,1
2,0.9,78,-0.01367403,-0.99797916,-0.00628972,1.68807924,3.15064406,-2.6889987,-54.19467926,-13.91405964,-86.17362976,0.13610356,-2.10888338,-4.35263109,0.99910969,-0.00048784,0.01843424,0.03794643,-0.00813086,0.00694957,-0.0016803,0,0,0,0,1,1
4,0.9,90,0.00901331,-0.93948662,-0.40388113,1.88000584,8.25846863,6.2353363,-28.70505714,28.44197655,-111.1663208,3.21776128,-0.72399175,5.83113289,0.99828297,-0.0283609,0.00487925,-0.05102035,-0.01489781,-0.00373314,0.02296927,0,0,0,0,1,1
1,0.91,91,-0.01619074,-1.0114218,0.05429597,-0.08860183,10.42232132,-1.44637835,-52.03157043,4.35545158,-100.5846252,0.53824717,6.89649582,4.40533638,0.9974519,-0.00237342,-0.06028204,-0.03808202,-0.05406076,-0.01519758,0.00519288,0,0,0,0,1,1
2,0.91,79,-0.00950059,-0.99498147,-0.00353001,2.23670912,0.94483137,-2.98306727,-53.93159866,-14.44022179,-85.96901703,0.1582932,-2.07892966,-4.34390831,0.99911726,-0.00069263,0.01818038,0.03786735,-0.01184827,0.0093022,-0.00467424,0,0,0,0,1,1
4,0.91,91,0.01980211,-0.94103134,-0.41315934,0.06974548,8.43317795,5.62075996,-28.70505714,28.44197655,-111.1663208,3.21783423,-0.74282533,5.93071175,0.99823689,-0.02837423,0.00501863,-0.05189238,-0.0260318,-0.01150856,0.02853265,0,0,0,0,1,1
1,0.92,92,-0.01676546,-1.0018332,0.05964315,0.08686309,9.06856918,-0.94388354,-51.53463745,5.52470016,-100.7892456,0.53286999,6.8996973,4.49565744,0.99741995,-0.002278,-0.06030992,-0.03887083,-0.05167519,-0.0091944,-0.00377999,0,0,0,0,1,1
2,0.92,80,-0.0202878,-0.99836707,0.00203536,1.85699058,-0.35648933,-3.23899388,-53.93159866,-14.44022179,-85.96901703,0.17694828,-2.04658556,-4.34816265,0.99912065,-0.00086532,0.01790457,0.03790211,-0.00046506,0.01455859,-0.0015586,0,0,0,0,1,1
4,0.92,92,0.03738245,-0.9334259,-0.41628623,-2.31242943,9.38930702,4.6500144,-28.646595,28.55890083,-110.6109314,2.98983073,-0.20483842,6.0184617,0.99827719,-0.02614602,0.00041493,-0.05252545,-0.04146863,-0.01650793,0.02312131,0,0,0,0,1,1
1,0.93,93,-0.01776582,-0.99303132,0.0644012,-0.09522629,7.41474676,0.13844536,-51.56386948,4.50160789,-99.76615143,0.52681375,6.89324427,4.56857061,0.99739856,-0.00218917,-0.06025312,-0.03950905,-0.0491448,-0.00381796,-0.01195213,0,0,0,0,1,1
4,0.93,93,0.05330405,-0.9270708,-0.41245061,-2.92420149,10.46737576,4.01992989,-28.52966881,28.14966393,-111.3709412,2.96093965,-0.20052396,6.13069248,0.99823201,-0.02589273,0.00036523,-0.05350207,-0.05029589,-0.0127244,0.01559971,0,0,0,0,1,1
1,0.94,94,-0.01293366,-0.99426681,0.07404666,0.3873761,5.68198109,1.00525367,-51.35925293,5.29085064,-100.1461563,0.52683783,6.87932301,4.62470627,0.99738634,-0.00216479,-0.06013303,-0.03999849,-0.05442581,0.005778,-0.01110877,0,0,0,0,1,1
2,0.94,81,-0.04815855,-1.00458431,-0.00189927,0.96078491,0.21568795,-3.79935026,-53.49312973,-13.76790428,-85.99824524,0.33611596,-2.31063271,-4.34960651,0.99907458,-0.00216531,0.02025938,0.03788137,0.02728761,0.0096574,0.00430926,0,0,0,0,1,1
4,0.94,94,0.06548497,-0.92616993,-0.40409571,-3.35008788,10.62346649,3.89851475,-28.41274452,27.12657166,-111.2832489,2.92776608,-0.1944212,6.24390602,0.99818629,-0.02560121,0.00030226,-0.05448681,-0.06240206,-0.00507558,0.01115333,0,0,0,0,1,1
1,0.95,95,-0.0090756,-1.00143528,0.07948073,0.1893308,4.30683231,1.11193466,-51.44694519,5.14469433,-100.2923126,0.65051931,7.51409769,4.64600945,0.9970299,-0.00300405,-0.06570058,-0.04007353,-0.05706348,0.01023854,-0.00415779,0,0,0,0,1,1
2,0.95,82,-0.05693989,-1.00326085,-0.00123971,0.62138766,1.03420413,-4.03073311,-54.19467926,-13.88482857,-85.70593262,0.34208509,-2.270226,-4.33973646,0.99908471,-0.00223247,0.01990887,0.03779558,0.03230592,0.00840103,0.00299055,0,0,0,0,1,1
4,0.95,95,0.07319422,-0.92229772,-0.4032065,-4.06910229,10.08286476,4.16513014,-28.3835125,28.1204319,-110.7570877,2.88741088,-0.19283381,6.35324574,0.99814284,-0.02524921,0.00028353,-0.05543878,-0.07006928,-0.00533006,0.00730234,0,0,0,0,1,1
1,0.96,96,-0.01333001,-1.00290155,0.0808344,-0.491036,3.10031772,0.64032489,-51.44694519,5.14469433,-100.2923126,0.64378065,7.50553846,4.67526817,0.99702471,-0.00293171,-0.0656245,-0.04033259,-0.0449364,0.0099785,-0.00078815,0,0,0,0,1,1
2,0.96,83,-0.06749385,-1.00067949,0.01066296,0.2108445,2.1299212,-4.29303694,-53.96083069,-13.97252274,-85.47208405,0.34369501,-2.22709012,-4.31886864,0.9990989,-0.00226434,0.0195329,0.03761477,0.04355029,0.02020279,0.00003607,0,0,0,0,1,1
4,0.96,96,0.07639688,-0.9216612,-0.40720689,-4.55405283,8.46736717,4.57329273,-28.3835125,28.1204319,-110.7570877,2.84216881,-0.20131207,6.44939995,0.99810565,-0.02485954,0.00035841,-0.05627802,-0.07334118,-0.00844631,0.00847992,0,0,0,0,1,1
1,0.97,97,-0.01816129,-1.00152111,0.08052801,-0.86843067,1.9667697,0.25558859,-51.44694519,5.43700647,-100.2046204,0.63389492,7.50162601,4.69288349,0.99702096,-0.00283702,-0.0655874,-0.04049178,-0.04002405,0.00990093,-0.00126762,0,0,0,0,1,1
2,0.97,84,-0.05820132,-1.0082525,0.01899882,-0.34292945,3.78416729,-4.80937958,-53.96083069,-13.97252274,-85.47208405,0.33938667,-2.1786375,-4.28141165,0.99911928,-0.00224897,0.01910831,0.03729048,0.03518414,0.02869616,0.00758751,0,0,0,0,1,1
4,0.97,97,0.07481024,-0.91390502,-0.41044641,-4.52782917,5.81518555,4.74245024,-28.58813095,27.8573513,-110.347847,2.61228371,0.55444896,6.48290777,0.99813527,-0.02248424,-0.00611834,-0.05641838,-0.06867913,-0.01317773,0.00287355,0,0,0,0,1,1
1,0.98,98,-0.01506187,-0.99971229,0.0752631,-1.35585248,0.88376838,0.21950954,-51.18386459,5.75855017,-100.8184738,0.61974335,7.49884319,4.69890022,0.99702078,-0.00271145,-0.06555834,-0.04055243,-0.04271597,0.00497561,-0.00393789,0,0,0,0,1,1
2,0.98,85,-0.05004249,-1.01058722,0.01650685,-1.03666353,6.8003335,-5.25573206,-54.04852295,-14.41099072,-85.32592773,0.3274945,-2.12542868,-4.21371603,0.99915004,-0.00217366,0.01863923,0.03670387,0.02795702,0.0263925,0.01004939,0,0,0,0,1,1
4,0.98,98,0.07380392,-0.9015373,-0.4124501,-4.15598583,2.25088263,4.22166872,-28.3835125,28.50043869,-110.9909363,2.5713377,0.52476209,6.5207057,0.99812543,-0.02214033,-0.0058469,-0.05675567,-0.05804682,-0.01726644,-0.00746805,0,0,0,0,1,1
1,0.99,99,-0.01138601,-1.00089025,0.06735155,-1.22805226,-0.88746077,0.58594513,-51.24232483,5.93393755,-100.7015457,0.60789376,7.49364042,4.68739796,0.99702799,-0.0026168,-0.06550861,-0.04045949,-0.04653686,-0.00275888,-0.00394636,0,0,0,0,1,1
2,0.99,86,-0.04961846,-1.00613129,0.0128156,-1.49789929,9.5711689,-5.6200943,-53.43466949,-14.06021595,-85.70593262,0.59135139,-2.32638073,-4.12903357,0.99913543,-0.00442478,0.02047252,0.03591221,0.02731213,0.02167284,0.00567376,0,0,0,0,1,1
4,0.99,99,0.0746372,-0.88949722,-0.40816453,-3.31646609,-0.68445098,3.1562283,-28.17889404,28.32505035,-110.8740158,2.53826308,0.49309206,6.52730465,0.99812943,-0.02186767,-0.00555592,-0.05682102,-0.05951083,-0.01809794,-0.02019139,0,0,0,0,1,1
1,1,100,-0.01132589,-1.0015285,0.06173453,-0.11662254,-2.43844271,0.65893817,-51.3300209,5.26161957,-100.7600098,0.49811569,7.97432804,4.52822638,0.9968034,-0.00158602,-0.06964933,-0.03910793,-0.0446477,-0.00784836,-0.00339204,0,0,0,0,1,1
2,1,87,-0.02194401,-0.99826711,0.0128962,-1.81688249,11.64858055,-5.87181807,-53.90236664,-14.87869072,-86.05670929,0.5702709,-2.26703882,-4.0125103,0.99918258,-0.00427996,0.01994416,0.03490292,-0.00283184,0.0182973,-0.00165304,0,0,0,0,1,1
4,1,100,0.07255741,-0.88107622,-0.40284187,-1.49425995,-3.6489954,1.64309585,-28.67582512,28.67582512,-110.6401596,2.52294469,0.46339083,6.50057507,0.99814636,-0.02175025,-0.00528455,-0.0565947,-0.05803241,-0.0166466,-0.03013234,0,0,0,0,1,1
1,1.01,101,-0.02606377,-1.00164819,0.0609661,1.41978478,-3.39323378,0.23165525,-51.3300209,5.26161957,-100.7600098,0.51413429,7.97429895,4.4971838,0.99681383,-0.00174424,-0.06965408,-0.03882816,-0.02392213,-0.00735534,0.00028316,0,0,0,0,1,1
2,1.01,88,0.00329108,-0.99664479,-0.00766577,-1.90294695,13.11343098,-5.80119658,-52.82081223,-14.2648344,-86.0859375,0.54810238,-2.20827746,-3.88132811,0.99923259,-0.0041269,0.01942033,0.0337657,-0.02704521,-0.00189492,-0.00261714,0,0,0,0,1,1
4,1.01,101,0.06774731,-0.87934935,-0.39717603,0.21991706,-6.2145977,0.04847403,-28.3835125,27.88658333,-110.9909363,2.52433133,0.43799633,6.44383621,0.99817461,-0.02177741,-0.00505325,-0.05610533,-0.05371991,-0.0122515,-0.03422085,0,0,0,0,1,1
1,1.02,102,-0.05192333,-0.99934417,0.05423777,1.75190508,-5.45692015,-0.05423755,-51.71002579,5.43700647,-100.8769379,0.53452271,7.97853947,4.4465394,0.9968279,-0.00195094,-0.06969703,-0.03837495,0.00203684,-0.01428646,0.00249312,0,0,0,0,1,1
2,1.02,89,0.0189974,-0.9942019,-0.01769023,-1.47507977,11.6720562,-5.50819731,-52.82081223,-14.2648344,-86.0859375,0.53067422,-2.15248466,-3.76465654,0.99927628,-0.00401072,0.01892461,0.03275382,-0.04179757,-0.01162082,-0.00470619,0,0,0,0,1,1
4,1.02,102,0.06227895,-0.88573056,-0.3914727,0.99600828,-7.79448557,-1.5359602,-28.3835125,27.88658333,-110.9909363,2.51669216,0.93383402,6.37514496,0.99818885,-0.02147278,-0.00935565,-0.05541098,-0.04635286,-0.00436259,-0.03102196,0,0,0,0,1,1
1,1.03,103,-0.06854542,-0.9993946,0.0511575,0.77181441,-7.27558279,0.02478744,-50.80385971,4.82315111,-100.7892456,0.54594696,7.98327208,4.37599659,0.99684829,-0.00209164,-0.06974073,-0.03775403,0.01847276,-0.01762412,0.00549537,0,0,0,0,1,1
2,1.03,90,0.03392746,-0.9975518,-0.02022318,-1.45851612,10.40758038,-5.2436347,-52.7915802,-14.67407131,-85.64746857,0.51379544,-2.09938598,-3.66063952,0.99931473,-0.00389554,0.01845322,0.03185188,-0.05572369,-0.01380539,-0.00112909,0,0,0,0,1,1
4,1.03,103,0.05586798,-0.89138901,-0.38994297,0.68008715,-8.91088104,-2.84059238,-28.7927494,28.41274452,-110.6986237,2.52138829,0.92406845,6.28207493,0.99823326,-0.02152597,-0.00925537,-0.05460177,-0.03341439,-0.00038136,-0.02658936,0,0,0,0,1,1
1,1.04,104,-0.07046193,-1.00668812,0.04586137,-0.05872936,-6.81627607,0.2209391,-51.30078888,4.76468849,-99.97076416,0.54876345,7.98575306,4.30828714,0.99686891,-0.00215653,-0.06976199,-0.03716314,0.01910688,-0.02344954,0.01270667,0,0,0,0,1,1
2,1.04,91,0.03347702,-0.99914873,-0.02394497,-1.44179058,8.65521336,-4.7401371,-53.7269783,-13.94329166,-86.14440155,0.30697069,-1.49395919,-3.60197067,0.99941868,-0.00226755,0.01311458,0.03139025,-0.05194518,-0.01638972,0.00040304,0,0,0,0,1,1
4,1.04,104,0.0497517,-0.89819682,-0.39482671,0.79386932,-8.99160862,-3.55401015,-28.9096756,28.99736977,-111.1078644,2.52715206,0.92052263,6.18539286,0.99827814,-0.02158565,-0.00920902,-0.05375977,-0.02734349,-0.00185618,-0.01836199,0,0,0,0,1,1
1,1.05,105,-0.06636149,-1.01144445,0.03759803,-0.75249553,-5.81664276,0.3494066,-51.44694519,4.96930695,-100.2338486,0.16569392,7.80567598,3.97207952,0.99708402,0.00091711,-0.06807372,-0.03447722,0.01352118,-0.03030952,0.01600363,0,0,0,0,1,1
2,1.05,92,0.03098756,-0.99923515,-0.02120864,-1.78498971,6.28896952,-4.39729166,-53.20081711,-13.97252274,-86.05670929,0.28846693,-1.44934189,-3.53925347,0.99944097,-0.00212538,0.01271921,0.0308465,-0.04136406,-0.01085269,0.00014011,0,0,0,0,1,1
4,1.05,105,0.04260163,-0.90582508,-0.39955649,1.26400137,-8.13908577,-3.8867085,-29.28968048,28.96813774,-111.4586334,2.53776026,0.92345959,6.09515572,0.99831802,-0.02168395,-0.00922251,-0.05297221,-0.02012899,-0.00287166,-0.00946935,0,0,0,0,1,1
1,1.06,106,-0.0705559,-1.01378,0.0325129,-0.72633326,-5.05176401,0.3427037,-51.41771317,5.32008171,-100.4092331,0.16104017,7.80539846,3.92050219,0.99709958,0.00092689,-0.06807033,-0.0340312,0.01491416,-0.0305254,0.01842755,0,0,0,0,1,1
2,1.06,93,0.02645431,-1.00076687,-0.02364099,-1.92830956,5.316751,-4.02269602,-53.23004913,-13.97252274,-86.11517334,0.26865155,-1.40855563,-3.48622084,0.99945986,-0.00196927,0.01235724,0.03038713,-0.03607378,-0.01292325,0.00162012,0,0,0,0,1,1
4,1.06,106,0.03625848,-0.91520214,-0.40244117,2.61959696,-7.06136036,-4.00316238,-28.88044357,28.67582512,-110.7570877,2.56211114,0.93181658,6.01423502,0.99834996,-0.02189877,-0.00929111,-0.0522636,-0.01361518,-0.00165506,0.00019357,0,0,0,0,1,1
1,1.07,107,-0.08261804,-1.00961912,0.03945705,-0.5835709,-4.89347649,0.07066139,-51.41771317,5.32008171,-100.4092331,0.15775445,7.80773449,3.87093377,0.99711275,0.00092672,-0.06809009,-0.03360176,0.02748942,-0.02328495,0.0170188,0,0,0,0,1,1
2,1.07,94,0.02146649,-1.00097501,-0.0199878,-1.69429064,4.85594606,-3.54127741,-53.23004913,-13.97252274,-86.11517334,0.25127441,-1.37261271,-3.43777299,0.99947679,-0.00183235,0.01203837,0.02996724,-0.03042231,-0.00895251,0.00167793,0,0,0,0,1,1
4,1.07,107,0.02743386,-0.92673069,-0.40320152,3.3586843,-5.58771992,-3.94283676,-28.88044357,28.67582512,-110.7570877,2.59657454,0.94390291,5.948318,0.99837255,-0.02219888,-0.00939936,-0.05168409,-0.00452404,0.00222671,0.01084353,0,0,0,0,1,1
1,1.08,108,-0.09352492,-1.00258827,0.04523465,-0.02354021,-5.3388319,0.1884435,-51.3300209,4.82315111,-100.0876923,0.16034101,7.80916977,3.81794596,0.99712735,0.00087314,-0.06810374,-0.0331391,0.03949261,-0.01709769,0.01251288,0,0,0,0,1,1
2,1.08,95,0.0135952,-1.00075245,-0.01971259,-1.6728493,4.94457293,-2.85884023,-52.32388306,-14.84945869,-86.0859375,0.23411514,-1.34346831,-3.38839293,0.99949288,-0.00169539,0.01177895,0.02953896,-0.02199679,-0.00836808,0.00131673,0,0,0,0,1,1
4,1.08,108,0.0188343,-0.93297225,-0.40563014,3.57022834,-4.02982998,-3.70995259,-28.96813774,28.646595,-111.0201721,2.63105464,0.96179223,5.89631176,0.99838799,-0.0224955,-0.00956056,-0.05122451,0.00438665,0.00216727,0.01749375,0,0,0,0,1,1
1,1.09,109,-0.10093838,-0.99882406,0.0469506,0.48937774,-5.12488174,0.83244866,-51.62233353,5.37854433,-100.0292282,0.16799788,7.80404377,3.76764512,0.99714494,0.00077515,-0.0680617,-0.03269702,0.04741702,-0.01527014,0.01030701,0,0,0,0,1,1
2,1.09,96,0.00694227,-1.00225973,-0.0187413,-1.59705317,5.55169725,-2.25826669,-53.25928116,-14.06021595,-86.2028656,0.19488966,-1.13352823,-3.3414011,0.99952507,-0.00141153,0.0099371,0.0291368,-0.01406949,-0.00699133,0.00267826,0,0,0,0,1,1
4,1.09,109,0.01107574,-0.93352246,-0.40401062,2.79426193,-3.04561305,-3.47300863,-27.91581345,27.79888916,-111.2247849,2.65799999,0.98146969,5.85432863,0.99840015,-0.02272497,-0.00973571,-0.05085242,0.01247947,0.00334007,0.01725226,0,0,0,0,1,1
1,1.1,110,-0.10330798,-0.99747366,0.05026288,0.68286026,-3.80271649,1.65796518,-51.21309662,3.24466538,-100.7600098,0.06289315,7.27034378,3.61023855,0.99749374,0.00144973,-0.06338892,-0.03140189,0.04752085,-0.01154538,0.00929653,0,0,0,0,1,1
2,1.1,97,0.01820779,-1.00248826,-0.01126831,-2.11239552,6.02821779,-1.74024796,-52.32388306,-15.40485191,-86.05670929,0.17350541,-1.11538494,-3.2810092,0.99954212,-0.00123478,0.00977276,0.02861217,-0.0225359,0.00112039,0.00290006,0,0,0,0,1,1
4,1.1,110,0.00405033,-0.93045694,-0.40130609,1.47409761,-2.56605458,-3.08976007,-29.28968048,29.02659988,-111.1955566,2.67187333,0.99955881,5.81836987,0.99841219,-0.02284086,-0.0098923,-0.0505342,0.01981125,0.00408381,0.01328352,0,0,0,0,1,1
1,1.11,111,-0.09841577,-1.00070906,0.05684882,0.36817929,-3.09415245,1.89395547,-51.24232483,5.70008755,-100.2630768,0.06860793,7.25330925,3.57922077,0.99751168,0.00137819,-0.06324258,-0.03112911,0.03501301,-0.00380333,0.01100427,0,0,0,0,1,1
2,1.11,98,0.0259282,-1.00231564,-0.01778189,-2.52035666,6.27742004,-1.12119985,-52.64542389,-14.5863781,-85.64746857,0.14803955,-1.10337734,-3.21799803,0.99955899,-0.00102096,0.0096611,0.02806487,-0.03000885,-0.00496985,0.0029399,0,0,0,0,1,1
4,1.11,111,0.00048822,-0.92416722,-0.39945802,0.04902639,-2.46795821,-2.69532633,-29.26045036,28.58813095,-110.903244,2.67156506,1.01442373,5.78497648,0.9984259,-0.02283448,-0.01001503,-0.0502402,0.02361294,0.00287741,0.00681017,0,0,0,0,1,1
1,1.12,112,-0.09239979,-1.00648963,0.06361625,-0.05969626,-3.18592429,1.77274179,-51.24232483,5.70008755,-100.2630768,0.07006511,7.23754406,3.54655457,0.99752921,0.00134322,-0.06310613,-0.0308443,0.02766017,0.00255674,0.01590195,0,0,0,0,1,1
2,1.12,99,0.03358317,-1.00218713,-0.01253331,-2.38052964,3.64593506,-0.68182087,-52.64542389,-14.5863781,-85.64746857,0.12406963,-1.09609115,-3.1812675,0.9995687,-0.00081674,0.00959141,0.02774658,-0.03751133,0.0006963,0.00284224,0,0,0,0,1,1
4,1.12,112,0.0002672,-0.9145624,-0.39849645,-0.98469561,-2.66488504,-2.14694858,-29.02659988,27.15580177,-111.4586334,2.63809967,0.7720266,5.73157406,0.99846989,-0.02265367,-0.00787782,-0.04982728,0.02287556,-0.00027995,-0.002258,0,0,0,0,1,1
1,1.13,113,-0.08413486,-1.00995922,0.06794117,-0.92990637,-3.45615959,1.11208105,-51.73925781,4.20929527,-100.4384689,0.06290855,7.22853947,3.50997305,0.99754393,0.00138297,-0.06302626,-0.03052999,0.01863987,0.00671752,0.01797974,0,0,0,0,1,1
2,1.13,100,0.03805886,-0.99695373,0.00074949,-2.8700335,0.44238859,-0.62690496,-53.14235687,-16.39871407,-86.29055786,0.09533589,-1.08976591,-3.17649531,0.99957061,-0.00056802,0.00952926,0.02770742,-0.041956,0.01437305,-0.00253118,0,0,0,0,1,1
4,1.13,113,0.0035705,-0.90695477,-0.39490852,-1.45504844,-3.41346478,-1.81270027,-29.02659988,27.15580177,-111.4586334,2.62278509,0.77499187,5.69313192,0.99848938,-0.02252157,-0.00788944,-0.04949277,0.01631652,0.00012416,-0.01072189,0,0,0,0,1,1
1,1.14,114,-0.07428837,-1.00350499,0.06362264,-1.73165023,-3.58679557,0.69820446,-51.24232483,5.904706,-100.6723175,0.04777396,7.22373438,3.47083449,0.99755675,0.00149193,-0.06298091,-0.0301977,0.01012606,0.00303324,0.00953977,0,0,0,0,1,1
2,1.14,101,0.0397161,-0.99686688,0.00262429,-2.78454065,-1.61152482,-0.5646407,-53.75621033,-14.06021595,-86.72902679,0.25264233,-0.62279201,-3.20016551,0.99959326,-0.00205207,0.00549429,0.02791062,-0.04150023,0.01592616,-0.00265226,0,0,0,0,1,1
4,1.14,114,0.00754983,-0.90092611,-0.39080647,-1.04595232,-3.86423254,-1.67837965,-28.3835125,29.5819931,-110.8740158,2.61148119,0.77491498,5.65106583,0.99850976,-0.02242601,-0.00787566,-0.04912702,0.01230761,0.00138441,-0.01792715,0,0,0,0,1,1
1,1.15,115,-0.06817979,-0.99811476,0.05866513,-0.59419805,-2.94802499,0.76493287,-51.3300209,2.86465931,-100.3507767,-0.00237674,7.160326,3.4161973,0.99760497,0.00188202,-0.06241659,-0.02975065,0.00484667,-0.00125297,0.00277601,0,0,0,0,1,1
2,1.15,102,0.03013954,-0.99695474,0.0038711,-3.01736331,-2.44352531,-0.25733894,-53.78544235,-14.73253441,-85.82286072,0.22235364,-0.62049526,-3.22416902,0.99958801,-0.00178727,0.00546725,0.02812149,-0.02581616,0.01526545,-0.00281537,0,0,0,0,1,1
4,1.15,115,0.01361629,-0.90318823,-0.38624883,0.26286837,-3.98402667,-1.55216503,-28.1204319,27.8573513,-110.7278595,2.61327004,0.7732023,5.60832596,0.99852771,-0.02244526,-0.00785313,-0.04875481,0.0062199,0.00653172,-0.01787299,0,0,0,0,1,1
1,1.16,116,-0.06587064,-0.99773997,0.05480101,-0.30641413,-1.58920527,0.6569714,-51.56386948,5.14469433,-100.7600098,-0.0044074,7.15471125,3.3995285,0.99761224,0.00188917,-0.06236746,-0.02960672,0.00184412,-0.00444904,0.00164299,0,0,0,0,1,1
2,1.16,103,0.02986223,-0.99864668,-0.00185367,-3.01329637,-2.11341453,0.42813128,-53.63928604,-14.23560333,-86.26132965,0.19213718,-0.62502992,-3.24478507,0.99958313,-0.00152159,0.00549966,0.0283027,-0.02554573,0.01008553,-0.0010408,0,0,0,0,1,1
4,1.16,116,0.01907007,-0.90875638,-0.38755673,1.20106769,-3.7585876,-1.35304785,-29.02659988,28.70505714,-111.1078644,2.62446547,0.77057225,5.5683856,0.99854255,-0.02254667,-0.00782712,-0.04840655,0.00076308,0.00768036,-0.01225859,0,0,0,0,1,1
1,1.17,117,-0.07684122,-0.99982661,0.050991,0.28744981,-0.3310084,0.47379968,-51.56386948,5.14469433,-100.7600098,-0.00128934,7.15017748,3.39652324,0.99761558,0.00185922,-0.06232885,-0.02957894,0.01218188,-0.00839665,0.00551339,0,0,0,0,1,1
2,1.17,104,0.02342588,-0.99995416,-0.01937283,-3.24220538,-1.64027083,0.97797787,-53.63928604,-14.23560333,-86.26132965,0.15964207,-0.63501507,-3.2605803,0.99957913,-0.0012349,0.00557891,0.0284419,-0.01922521,-0.0068478,0.00044018,0,0,0,0,1,1
4,1.17,117,0.02364699,-0.91907454,-0.38888964,2.17407203,-3.29054737,-1.15014195,-28.96813774,28.82198143,-110.6401596,2.76083088,0.83606946,5.57389164,0.99850941,-0.02370668,-0.00845657,-0.04843123,-0.00350063,0.01022765,-0.00234084,0,0,0,0,1,1
1,1.18,118,-0.08826482,-0.99327964,0.05639555,0.26659614,0.03391081,0.17599083,-51.79771805,5.4077754,-100.5261612,0.00136601,7.14840031,3.39725733,0.99761641,0.00183604,-0.06231405,-0.02958391,0.02452062,-0.00266689,0.00154604,0,0,0,0,1,1
2,1.18,105,0.02052891,-1.00189304,-0.02393972,-3.13331389,-1.92642903,1.41037071,-53.69775009,-14.44022179,-86.11517334,0.12823036,-0.64937121,-3.27918005,0.99957418,-0.0009564,0.0056965,0.02860552,-0.01652037,-0.01082335,0.00240627,0,0,0,0,1,1
4,1.18,118,0.02663024,-0.92620486,-0.3955462,2.42533088,-2.65213943,-0.75694519,-28.96813774,28.82198143,-110.6401596,2.78451538,0.83248162,5.54638624,0.9985162,-0.0239166,-0.00842958,-0.04819057,-0.00558573,0.00548469,0.00711696,0,0,0,0,1,1
1,1.19,119,-0.08832536,-0.9953118,0.0640665,0.45445037,-0.58931267,0.01329007,-51.73925781,5.96316862,-101.286171,0.00631787,7.1486187,3.3922863,0.9976176,0.00179028,-0.0623173,-0.02953793,0.02410578,0.00480834,0.00399614,0,0,0,0,1,1
2,1.19,106,0.01248952,-0.99986482,-0.03442822,-2.88113856,-1.90138149,1.74002111,-53.20081711,-16.57410049,-86.0859375,-0.16301009,-0.58110482,-3.33822441,0.99956173,0.00156962,0.00502748,0.02913418,-0.00842238,-0.01967584,0.00041769,0,0,0,0,1,1
4,1.19,119,0.02466806,-0.92675036,-0.40213707,1.63271093,-2.25683069,-0.54625458,-28.55890083,28.61736298,-110.5524674,2.80035996,0.82853514,5.5233984,0.99852282,-0.02405803,-0.00839703,-0.04798996,-0.00367194,-0.00052264,0.01051828,0,0,0,0,1,1
1,1.2,120,-0.08158034,-1.00308907,0.07293116,0.63383824,-0.56975341,-0.091142,-51.41771317,5.78778124,-100.6138535,0.1716679,6.9757781,3.41021681,0.99770731,0.00031559,-0.06085502,-0.0296091,0.01519052,0.01238433,0.01078334,0,0,0,0,1,1
2,1.2,107,0.0110437,-0.99670458,-0.04528731,-2.2719636,-2.46755576,2.14624429,-52.76234818,-13.97252274,-85.93978119,-0.18585211,-0.60302186,-3.36214709,0.99955428,0.00177552,0.00521248,0.02934414,-0.00625431,-0.02671515,-0.00260136,0,0,0,0,1,1
4,1.2,120,0.02353025,-0.92111677,-0.40710041,0.83801419,-2.03337955,-0.51198304,-28.35428238,28.32505035,-110.7570877,2.80828357,0.82516348,5.50264692,0.99852997,-0.02413001,-0.0083666,-0.04780928,-0.00261492,-0.00765188,0.00765504,0,0,0,0,1,1
1,1.21,121,-0.07641566,-1.00625384,0.06836347,-0.21252134,-0.19736278,-0.07104578,-51.24232483,4.94007587,-99.56153107,0.16966555,6.97660875,3.40790796,0.99770749,0.00033202,-0.06086174,-0.02959004,0.00732681,0.00555138,0.01237625,0,0,0,0,1,1
2,1.21,108,0.00246643,-0.99488819,-0.04061912,-1.79039657,-3.85733557,2.42179561,-52.76234818,-13.97252274,-85.93978119,-0.20392963,-0.62796205,-3.39997458,0.99954307,0.00194138,0.00542476,0.02967527,0.00187739,-0.02172105,-0.00461462,0,0,0,0,1,1
4,1.21,121,0.01812789,-0.91380936,-0.40685278,0.30768108,-1.67070496,-0.49174336,-29.11429405,28.96813774,-111.2540207,2.81098914,0.82304662,5.48533773,0.99853671,-0.02415574,-0.00834563,-0.04765871,0.00269712,-0.01072965,0.00095708,0,0,0,0,1,1
1,1.22,122,-0.07854422,-1.00788677,0.05638622,-0.57280171,0.07665452,-0.30042562,-51.24232483,4.94007587,-99.56153107,0.16384432,6.97956419,3.40776944,0.99770594,0.00038339,-0.06088597,-0.02959184,0.0092814,-0.00641232,0.01368232,0,0,0,0,1,1
2,1.22,109,-0.00488934,-0.99604678,-0.03375847,-1.45204663,-4.60165071,2.40937781,-53.37620544,-14.79099655,-86.05670929,-0.21863382,-0.65293282,-3.44530296,0.99952978,0.00207833,0.00563794,0.03007173,0.00880655,-0.0145719,-0.00366877,0,0,0,0,1,1
4,1.22,122,0.01431411,-0.90632725,-0.40594289,-0.06601052,-1.02958441,-0.5882836,-27.8573513,28.00350761,-111.2247849,2.66645455,0.72975594,5.42800713,0.99859476,-0.02293907,-0.0074611,-0.04718879,0.00605026,-0.01258991,-0.00621844,0,0,0,0,1,1
1,1.23,123,-0.08796435,-1.00579226,0.05003561,0.05829019,-0.15903369,-0.55604476,-51.38848114,5.02776957,-100.5261612,0.1645252,6.98521185,3.40665102,0.99770319,0.00037834,-0.06093532,-0.02958158,0.01908228,-0.01258379,0.01303578,0,0,0,0,1,1
2,1.23,110,-0.01776817,-0.99955732,-0.03152205,-1.30865288,-4.23873329,2.30724311,-52.87927628,-14.61560917,-85.96901703,-0.23187515,-0.67682731,-3.48702979,0.9995172,0.00220222,0.00584209,0.03043672,0.02131503,-0.01204991,-0.00038388,0,0,0,0,1,1
4,1.23,123,0.01136724,-0.90279287,-0.40382177,0.19502279,-0.12714233,-0.712632,-28.9096756,28.76351929,-111.2540207,2.6683166,0.73578298,5.42398691,0.99859577,-0.02295306,-0.00751358,-0.0471524,0.00780244,-0.0103813,-0.01045009,0,0,0,0,1,1
1,1.24,124,-0.0929781,-1.00303733,0.04465489,1.33025205,-0.30074587,-0.36331695,-51.38848114,5.58316278,-99.91230774,0.17810272,6.98901844,3.40642238,0.99770129,0.00026099,-0.06097197,-0.02957226,0.02466575,-0.01794213,0.010972,0,0,0,0,1,1
2,1.24,111,-0.02296985,-1.00016296,-0.02132602,-1.63083434,-3.69580078,2.05495024,-52.90850449,-14.99561501,-85.76439667,-0.25237674,-0.98861027,-3.52073336,0.99948788,0.0024663,0.0085554,0.03073712,0.02486664,-0.00155592,0.00000883,0,0,0,0,1,1
4,1.24,124,0.01236875,-0.90456647,-0.40019211,0.49131843,0.34282055,-0.91280246,-28.9096756,28.76351929,-111.2540207,2.67322016,0.74552238,5.42345333,0.99859452,-0.0229918,-0.00760037,-0.04714542,0.00695408,-0.00640912,-0.01044918,0,0,0,0,1,1
1,1.25,125,-0.0892705,-1.00553942,0.05485311,1.08787596,0.28689632,0.02336853,-51.8561821,5.4077754,-100.6138535,0.14901277,6.79906845,3.39177227,0.99780458,0.00045737,-0.05931063,-0.02946529,0.01964343,-0.00797564,0.0132281,0,0,0,0,1,1
2,1.25,112,-0.03037168,-0.99673611,-0.0271264,-1.7359463,-2.08651161,1.83036077,-53.34697342,-14.38175964,-85.96901703,-0.2696813,-1.00732112,-3.54097199,0.99948061,0.00262378,0.00871349,0.03091528,0.02807034,-0.00705338,-0.00337703,0,0,0,0,1,1
4,1.25,125,0.01354285,-0.90912217,-0.39873901,0.41675332,0.46602726,-1.1720897,-29.05583191,28.70505714,-110.8155518,2.67738652,0.75813013,5.42302132,0.99859327,-0.02302291,-0.00771186,-0.04713877,0.00600475,-0.00317862,-0.00698866,0,0,0,0,1,1
1,1.26,126,-0.07842088,-1.00308824,0.06415472,0.24636923,1.54526627,0.37003908,-51.79771805,5.52470016,-100.5846252,0.15042453,6.79441643,3.40726852,0.99780303,0.00045189,-0.05927043,-0.02959962,0.00682267,0.00190022,0.00902599,0,0,0,0,1,1
2,1.26,113,-0.03167876,-0.99671549,-0.03239621,-1.73656225,-1.77061594,1.57192624,-53.34697342,-14.38175964,-85.96901703,-0.2870113,-1.02339566,-3.55808854,0.99947429,0.00278059,0.0088486,0.0310662,0.02907869,-0.01202612,-0.00332915,0,0,0,0,1,1
4,1.26,126,0.01666692,-0.91590559,-0.39780253,0.29073751,0.32872427,-1.36597514,-28.58813095,28.85121346,-110.8155518,2.68022752,0.77196735,5.42056513,0.99859303,-0.02304211,-0.00783311,-0.04711432,0.00314965,0.00059367,-0.00128924,0,0,0,0,1,1
1,1.27,127,-0.07313317,-1.00337684,0.06866218,0.07653695,2.0990777,0.66844028,-51.79771805,5.52470016,-100.5846252,0.14972621,6.7864418,3.42772388,0.99780172,0.00046647,-0.05920072,-0.0297783,0.0014062,0.00638605,0.00856572,0,0,0,0,1,1
2,1.27,114,-0.0176358,-0.99971217,-0.02928158,-1.5393213,-1.28715611,1.45315433,-53.46389771,-14.76176548,-86.40748596,-0.30237269,-1.03819275,-3.57041311,0.9994694,0.00291954,0.00897319,0.03117519,0.01481744,-0.00858869,-0.00016167,0,0,0,0,1,1
4,1.27,127,0.02044298,-0.92117602,-0.39469028,-0.20387852,-0.07009635,-1.44384992,-28.73428726,29.02659988,-111.2247849,2.78035092,0.81102592,5.44124365,0.99856204,-0.02389696,-0.00821895,-0.04727928,-0.00025475,0.00526751,0.00211644,0,0,0,0,1,1
1,1.28,128,-0.06751134,-1.00424457,0.07301146,-0.20272662,1.52238035,0.68397433,-51.73925781,4.53083897,-100.6430893,0.14662887,6.77867556,3.44194865,0.99780208,0.00049875,-0.05913224,-0.02990397,-0.00446856,0.01070999,0.0085986,0,0,0,0,1,1
2,1.28,115,-0.00793968,-0.99862903,-0.03172594,-1.57414699,-0.96044809,1.509812,-53.52236176,-14.96638393,-85.96901703,-0.31808954,-1.05348492,-3.57946014,0.99946535,0.0030615,0.00910205,0.03125566,0.00484411,-0.01077453,-0.00105307,0,0,0,0,1,1
4,1.28,128,0.02417087,-0.92577541,-0.39411962,-1.17399681,-0.7474038,-1.47602081,-28.3835125,28.58813095,-110.6693955,2.76836061,0.82159603,5.42859268,0.99856919,-0.023789,-0.00830348,-0.04716764,-0.0034131,0.00662028,0.00607985,0,0,0,0,1,1
1,1.29,129,-0.05970081,-0.99973661,0.07308178,-0.13335925,0.35910323,0.51963574,-51.82695007,5.52470016,-100.3215408,0.1450409,6.77326632,3.44492197,0.99780411,0.00051269,-0.05908471,-0.02993083,-0.01140408,0.01109977,0.00270447,0,0,0,0,1,1
2,1.29,116,0.00232596,-0.99482852,-0.03182602,-1.27125919,-1.51445174,1.48254144,-52.87927628,-14.55714703,-85.79362488,-0.44295439,-1.01484525,-3.6011622,0.99945849,0.0041417,0.00873019,0.03145363,-0.00550757,-0.01019256,-0.00468974,0,0,0,0,1,1
4,1.29,129,0.02610701,-0.92127961,-0.39524621,-1.24153841,-1.63174522,-1.40262258,-28.3835125,28.58813095,-110.6693955,2.75551438,0.82797337,5.40812302,0.99857992,-0.0236759,-0.00834954,-0.04698884,-0.00523245,0.0038549,0.00254647,0,0,0,0,1,1
1,1.3,130,-0.05754292,-0.99719173,0.07127876,0.04873252,-1.18507016,0.27125955,-51.30078888,5.93393755,-100.847702,0.24567938,6.91561699,3.45496178,0.99772745,-0.00032089,-0.06035047,-0.02996145,-0.01246177,0.00900099,-0.00023131,0,0,0,0,1,1
2,1.3,117,-0.00026295,-0.9954139,-0.02406465,-1.00575531,-2.25248289,1.20881987,-52.41157532,-14.44022179,-85.61824036,-0.45295978,-1.02745664,-3.62323809,0.9994511,0.00423412,0.00883662,0.03164735,-0.00244949,-0.00077002,-0.00426156,0,0,0,0,1,1
4,1.3,130,0.02530727,-0.91574687,-0.39515784,-0.5323748,-2.58365488,-1.36125612,-28.646595,28.44197655,-111.2832489,2.74958086,0.83018142,5.37903881,0.99859297,-0.02362541,-0.00836035,-0.04673536,-0.00439996,0.00164615,-0.00246869,0,0,0,0,1,1
1,1.31,131,-0.05942849,-1.00232208,0.06668033,-0.23949081,-2.45691133,0.2613306,-51.82695007,4.79392004,-101.1107864,0.24495636,6.91457415,3.43008184,0.99773455,-0.00032797,-0.06034112,-0.02974524,-0.00966777,0.00282492,0.00511113,0,0,0,0,1,1
2,1.31,118,-0.00764488,-0.99791586,-0.02171163,-0.70165002,-2.23766208,1.18823898,-52.41157532,-14.44022179,-85.61824036,-0.45991707,-1.03986204,-3.6452322,0.99944371,0.00429994,0.00894207,0.03184011,0.00475369,0.0017562,-0.00190401,0,0,0,0,1,1
4,1.31,131,0.02526083,-0.90947104,-0.39619091,0.10653986,-3.60513067,-1.30388224,-28.44197655,28.73428726,-111.5170975,2.74984574,0.82780218,5.34076309,0.99860853,-0.02363147,-0.00833183,-0.04640229,-0.00439967,-0.00201533,-0.00764608,0,0,0,0,1,1
1,1.32,132,-0.06684459,-1.00607145,0.05819504,0.15268338,-2.31331015,0.24633192,-51.5931015,5.52470016,-100.7892456,0.24806879,6.91358471,3.40737128,0.99774086,-0.00036729,-0.06033324,-0.0295459,-0.0030036,-0.00589968,0.00968272,0,0,0,0,1,1
2,1.32,119,-0.01630147,-0.99771309,-0.01973612,-0.30686533,-2.05504203,1.34343326,-53.08389282,-15.34638977,-86.67056274,-0.462937,-1.05377972,-3.66541243,0.99943686,0.00433173,0.00906186,0.03201681,0.01317772,0.00381614,-0.00226416,0,0,0,0,1,1
4,1.32,132,0.02367101,-0.90527099,-0.39606977,0.67446959,-4.34969378,-1.22533357,-28.646595,28.7927494,-111.1955566,2.71203566,0.85867459,5.28528786,0.99863702,-0.02329354,-0.00857428,-0.04591513,-0.00275588,-0.00363624,-0.01148318,0,0,0,0,1,1
1,1.33,133,-0.07207002,-0.99983984,0.05549993,0.28642669,-1.75607347,0.68094301,-51.5931015,5.52470016,-100.7892456,0.25217146,6.90790224,3.39014244,0.99774832,-0.00041355,-0.06028477,-0.02939393,0.00326489,-0.00827992,0.00438842,0,0,0,0,1,1
2,1.33,120,-0.01513453,-0.99823546,-0.01786901,-0.1243558,-0.81973827,1.54827487,-53.17158508,-14.49868488,-86.34902191,-0.46415195,-1.0694524,-3.67321849,0.9994334,0.00434732,0.00919791,0.0320855,0.01175275,0.00572569,-0.00174792,0,0,0,0,1,1
4,1.33,133,0.02415087,-0.90600759,-0.3974013,1.50622404,-4.81630373,-1.17613316,-28.52966881,28.85121346,-111.2832489,2.72603893,0.85027933,5.23632336,0.99865419,-0.0234226,-0.00849672,-0.04548913,-0.00288021,-0.00413228,-0.01024421,0,0,0,0,1,1
1,1.34,134,-0.07346666,-0.99834639,0.06476055,0.62719387,-1.99574459,1.11931205,-52.26541901,5.93393755,-100.7307816,0.25988498,6.89799976,3.37091494,0.99775839,-0.00049338,-0.06020044,-0.0292228,0.0046662,0.00094211,0.00370863,0,0,0,0,1,1
2,1.34,121,-0.01526899,-0.99591184,-0.02201587,0.02219528,0.81684947,1.54850209,-53.43466949,-14.38175964,-86.87518311,-0.44333172,-1.21962047,-3.66531515,0.99942309,0.00420696,0.01051375,0.03201955,0.0109965,0.00145517,-0.00399257,0,0,0,0,1,1
4,1.34,134,0.02448547,-0.91049868,-0.39848787,1.99807751,-4.38131666,-1.28896046,-28.76351929,28.41274452,-111.3709412,2.74506593,0.84466946,5.19086981,0.99866849,-0.02359401,-0.00844603,-0.04509278,-0.00330594,-0.00342279,-0.0057202,0,0,0,0,1,1
1,1.35,135,-0.07170396,-1.00152779,0.0751825,0.5968948,-2.55238223,1.39316916,-50.74539566,6.02163124,-100.8769379,0.41136369,6.89716148,3.3715713,0.99775714,-0.00181219,-0.06023173,-0.02914895,0.00207549,0.01039765,0.00709143,0,0,0,0,1,1
2,1.35,122,-0.01581562,-0.99764675,-0.02028258,-0.04813889,1.47326684,1.52203989,-53.25928116,-13.88482857,-86.11517334,-0.44390288,-1.23449612,-3.65021491,0.99942595,0.00421468,0.01064389,0.03188836,0.00953935,0.00294361,-0.00225449,0,0,0,0,1,1
4,1.35,135,0.02444181,-0.91547596,-0.40160024,1.99479699,-3.7565515,-1.41872764,-28.76351929,28.41274452,-111.3709412,2.76416636,0.84274971,5.15063143,0.99868035,-0.02376419,-0.00842847,-0.0447411,-0.00328286,-0.00436187,0.00013496,0,0,0,0,1,1
1,1.36,136,-0.06143397,-1.00403404,0.07170924,0.88841027,-3.0182786,1.54683006,-51.79771805,5.52470016,-101.344635,0.4224228,6.88372183,3.3424325,0.99777138,-0.00192724,-0.06011703,-0.02889006,-0.00852502,0.00474927,0.0074221,0,0,0,0,1,1
2,1.36,123,-0.01091189,-0.99841577,-0.01540158,-0.17336711,1.43956673,1.54047024,-53.25928116,-13.88482857,-86.11517334,-0.44572648,-1.24955702,-3.6354425,0.99942851,0.00423338,0.01077528,0.03176015,0.00438561,0.00785762,-0.00148101,0,0,0,0,1,1
4,1.36,136,0.02360343,-0.91864496,-0.40005332,1.14247239,-3.1845119,-1.6576823,-28.35428238,28.58813095,-111.3709412,2.77483439,0.84530437,5.11474276,0.99869198,-0.02385881,-0.00844743,-0.04442699,-0.00241653,-0.00182605,0.00230255,0,0,0,0,1,1
1,1.37,137,-0.05578256,-1.006217,0.07061366,0.59396404,-3.76883912,1.46960211,-51.8561821,5.904706,-100.6723175,0.43102726,6.871562,3.30537486,0.99778688,-0.00202468,-0.06001267,-0.02856346,-0.01469453,0.00334102,0.00841312,0,0,0,0,1,1
2,1.37,124,-0.00511219,-0.99895084,-0.02737596,-0.2455439,1.35591364,1.45287466,-52.73311996,-13.47559166,-86.2028656,-0.44827849,-1.2637682,-3.62150455,0.99943089,0.00425824,0.01089904,0.03163927,-0.00165196,-0.00405789,-0.00066622,0,0,0,0,1,1
4,1.37,137,0.02279005,-0.92092776,-0.39914244,-0.08013969,-2.76921797,-1.88337755,-28.58813095,27.38965225,-111.3709412,2.77143812,0.8585794,5.08155727,0.99870479,-0.0238265,-0.0085549,-0.04413518,-0.0014735,-0.00003784,0.00394712,0,0,0,0,1,1
1,1.38,138,-0.05146779,-1.00767493,0.07182597,-0.58827585,-5.03353405,1.22454,-51.8561821,5.904706,-100.6723175,0.42863449,6.86271,3.25376439,0.99780434,-0.00203308,-0.0599341,-0.02811574,-0.01939339,0.00443647,0.00908306,0,0,0,0,1,1
2,1.38,125,-0.00927811,-0.99708968,-0.03187886,-0.13886909,1.20129514,1.37999284,-52.85004425,-15.52177715,-86.0859375,-0.44976074,-1.277282,-3.60915565,0.99943292,0.0042737,0.01101695,0.03153213,0.00224148,-0.00855401,-0.00251466,0,0,0,0,1,1
4,1.38,138,0.02061771,-0.92583215,-0.39695621,-0.82449502,-2.68260264,-2.0595181,-28.82198143,28.09120178,-111.1078644,2.76248431,0.86680871,5.04880142,0.99871874,-0.02374773,-0.00861639,-0.04384862,0.00094874,0.00422219,0.00736575,0,0,0,0,1,1
1,1.39,139,-0.05854717,-1.0032382,0.07009711,-0.89323914,-6.30539131,1.00715756,-51.50540543,5.32008171,-100.5261612,0.42408019,6.85687447,3.18916965,0.99782306,-0.00202863,-0.05988104,-0.02755594,-0.01170713,0.00305545,0.00594536,0,0,0,0,1,1
2,1.39,126,-0.00809286,-0.99834615,-0.02571839,0.03694281,0.27372643,1.13995981,-52.87927628,-15.05407715,-86.52440643,-0.47410712,-1.2781837,-3.60665226,0.99943262,0.00448605,0.01101821,0.03151267,0.00090479,-0.00226664,-0.00133153,0,0,0,0,1,1
4,1.39,139,0.01756434,-0.92841703,-0.39849108,-1.00163281,-2.8902669,-2.13300943,-28.70505714,28.47120667,-111.1078644,2.75171542,0.87488133,5.01386309,0.99873382,-0.0236534,-0.00867541,-0.04354321,0.00416438,0.00417406,0.01033596,0,0,0,0,1,1
1,1.4,140,-0.07368012,-0.99842268,0.0567553,-0.18757017,-7.02724123,1.32125998,-51.71002579,5.93393755,-100.6723175,0.27346539,6.73435545,3.0969646,0.99791008,-0.00079428,-0.05877726,-0.02683597,0.00358853,-0.00931019,0.00320666,0,0,0,0,1,1
2,1.4,127,-0.01146287,-1.0000186,-0.02730841,0.1966944,0.1212416,0.944188,-52.82081223,-14.2648344,-86.84594727,-0.47215715,-1.2875973,-3.60524106,0.99943215,0.00447148,0.01110091,0.03150048,0.00426334,-0.00353456,0.00031712,0,0,0,0,1,1
4,1.4,140,0.0153995,-0.92509586,-0.4026036,-0.91141063,-3.21994686,-2.0505724,-28.70505714,28.47120667,-111.1078644,2.74178791,0.88087928,4.97621679,0.99874985,-0.02356745,-0.00871617,-0.04321458,0.00644236,-0.00080368,0.00915049,0,0,0,0,1,1
1,1.41,141,-0.09006052,-1.00170982,0.04596067,-0.12481995,-6.43591833,1.56738007,-51.73925781,5.61239386,-100.3507767,0.27687788,6.72283792,3.03221154,0.997931,-0.00085988,-0.05867729,-0.02627072,0.01751802,-0.0183575,0.00866309,0,0,0,0,1,1
2,1.41,128,-0.02824007,-1.0019244,-0.02454743,0.26710236,-0.50070167,0.97105569,-52.82081223,-14.2648344,-86.84594727,-0.46945053,-1.29742098,-3.61005974,0.99943,0.00445104,0.01118714,0.03154257,0.02090045,-0.00078196,0.00192797,0,0,0,0,1,1
4,1.41,141,0.01330926,-0.91697931,-0.40357336,-0.53808701,-3.68782806,-1.95144868,-29.34814262,28.06196976,-110.903244,2.73548913,0.88409942,4.93464899,0.99876654,-0.0235145,-0.00873333,-0.04285208,0.00856195,-0.00511795,0.00227669,0,0,0,0,1,1
1,1.42,142,-0.09960233,-1.00480497,0.05093447,-0.67410982,-5.48663807,1.58911228,-51.79771805,4.76468849,-100.4384689,0.2741082,6.71050167,2.9757762,0.99795002,-0.00086746,-0.0585688,-0.02578108,0.02604369,-0.01357158,0.0137528,0,0,0,0,1,1
2,1.42,129,-0.03040636,-1.00231302,-0.01787594,0.4461177,-0.29399738,0.90165156,-52.29465103,-15.14177132,-86.34902191,-0.46496341,-1.30650938,-3.61286402,0.99942845,0.00441468,0.01126754,0.03156688,0.02290199,0.00582806,0.00218337,0,0,0,0,1,1
4,1.42,142,0.01091076,-0.90958422,-0.40060905,-0.0221388,-3.98317361,-1.72737086,-28.26658821,28.76351929,-110.7570877,2.6537137,0.7649985,4.87058306,0.99881333,-0.02285093,-0.0076519,-0.04232426,0.01041048,-0.00532151,-0.00570876,0,0,0,0,1,1
1,1.43,143,-0.0975956,-1.00458741,0.06325489,-0.41995567,-4.26715899,1.40709507,-51.79771805,4.76468849,-100.4384689,0.27301896,6.69919586,2.93197465,0.99796569,-0.00088289,-0.05846976,-0.02540056,0.0237712,-0.00121317,0.01385708,0,0,0,0,1,1
2,1.43,130,-0.01673542,-1.00102723,-0.01887673,0.16224438,0.98567677,0.84987992,-52.64542389,-14.46945286,-86.31978607,-0.46343473,-1.31477606,-3.60283542,0.99943036,0.00440262,0.01134044,0.03147953,0.00906909,0.00475748,0.00112417,0,0,0,0,1,1
4,1.43,143,0.01216523,-0.90555751,-0.39429158,0.17404187,-3.9665916,-1.58710194,-28.47120667,28.00350761,-111.750946,2.65461683,0.76370686,4.82786322,0.99882895,-0.02286213,-0.00763245,-0.04195211,0.00753947,-0.00038331,-0.01217425,0,0,0,0,1,1
1,1.44,144,-0.09224598,-1.00074911,0.07006437,0.0326217,-3.23664761,1.38961589,-51.94387436,5.52470016,-100.1169205,0.27574113,6.68740225,2.89921069,0.99797881,-0.00092593,-0.05836739,-0.02511424,0.01896193,0.00577963,0.009464,0,0,0,0,1,1
2,1.44,131,-0.00282496,-0.99954373,-0.0209667,0.27074811,1.48419297,0.87206215,-53.34697342,-14.90792179,-86.0859375,-0.43074307,-1.21545398,-3.58582497,0.99944597,0.00408873,0.01048377,0.03132498,-0.00453924,0.00248304,-0.00012336,0,0,0,0,1,1
4,1.44,144,0.01423461,-0.90259826,-0.38939688,0.54761809,-3.86361313,-1.37515068,-28.44197655,28.1204319,-111.4586334,2.65929365,0.76088721,4.78691292,0.99884301,-0.02290665,-0.0076014,-0.04159543,0.0053963,0.00264371,-0.01697465,0,0,0,0,1,1
1,1.45,145,-0.08480044,-0.99950272,0.07448248,-0.36933056,-2.65063167,1.50067878,-51.50540543,5.4077754,-100,0.38221896,6.54661036,2.88017368,0.99805248,-0.00189401,-0.05716421,-0.02490007,0.01106178,0.00978982,0.00701595,0,0,0,0,1,1
2,1.45,132,0.00768981,-0.99835443,-0.01825873,0.23233846,0.53910607,0.7389971,-53.14235687,-14.90792179,-86.14440155,-0.42844725,-1.22271883,-3.58029914,0.99944687,0.00407018,0.01054795,0.03127679,-0.01379936,0.00472809,-0.00122618,0,0,0,0,1,1
4,1.45,145,0.0147016,-0.89971912,-0.39188069,0.97117805,-3.49929547,-1.33290219,-28.9096756,26.80502701,-111.400177,2.66827345,0.75914091,4.74944401,0.99885488,-0.02298804,-0.00758193,-0.04126859,0.00488113,-0.00097196,-0.01845374,0,0,0,0,1,1
1,1.46,146,-0.0786922,-0.99574012,0.06974445,0.23279822,-2.0874815,1.41300535,-51.71002579,5.96316862,-100,0.38616356,6.53388596,2.859097,0.99806333,-0.00194167,-0.05705388,-0.02471507,0.0039349,0.00386667,0.00169435,0,0,0,0,1,1
2,1.46,133,0.01258283,-0.99804121,-0.01633178,0.20989931,-1.42426026,0.64619392,-53.14235687,-14.90792179,-86.14440155,-0.4262704,-1.22950637,-3.59442544,0.99944246,0.00405435,0.01060725,0.0314,-0.01881473,0.00660855,-0.00149252,0,0,0,0,1,1
4,1.46,146,0.01470324,-0.9011097,-0.39194018,1.39283216,-3.27232695,-1.4491725,-28.9096756,26.80502701,-111.400177,2.68151045,0.75937694,4.71356153,0.99886513,-0.02310572,-0.00758152,-0.04095489,0.00487937,-0.00061908,-0.01717015,0,0,0,0,1,1
1,1.47,147,-0.07489491,-0.99907178,0.06589552,0.48506472,-2.24097896,1.47464752,-50.97924423,3.97544575,-100.6430893,0.39277202,6.52064466,2.8369391,0.99807447,-0.00201314,-0.05693958,-0.02451934,-0.00060497,-0.00029595,0.00399884,0,0,0,0,1,1
2,1.47,134,0.00408488,-0.99789035,-0.01939012,-0.11523586,-3.02585793,0.70073664,-53.40543747,-14.23560333,-86.55363464,-0.42723697,-1.23720872,-3.62449574,0.99943346,0.00406768,0.0106731,0.03166258,-0.01044783,0.0035515,-0.00172241,0,0,0,0,1,1
4,1.47,147,0.01468556,-0.90342385,-0.39514533,1.70745051,-3.11416149,-1.6539079,-29.11429405,28.20812607,-110.9324722,2.67456245,0.70837462,4.67162371,0.99888378,-0.02306612,-0.00712602,-0.04060027,0.00471663,-0.0026449,-0.01367366,0,0,0,0,1,1
1,1.48,148,-0.06927418,-1.00369143,0.06752396,-0.34428737,-3.08450127,1.20778108,-50.97924423,3.97544575,-100.6430893,0.39167693,6.51063681,2.80506992,0.99808621,-0.00202159,-0.05685162,-0.02424273,-0.00720441,0.00103077,0.00754709,0,0,0,0,1,1
2,1.48,135,-0.00671579,-0.99647832,-0.0198737,0.07852741,-4.00605202,0.49484512,-52.70388794,-14.14791012,-85.99824524,-0.42619684,-1.24307585,-3.66444254,0.99942172,0.00406397,0.01072314,0.03201105,0.00021222,0.00304289,-0.0032883,0,0,0,0,1,1
4,1.48,148,0.01730699,-0.90830636,-0.39608493,1.24656188,-2.99292278,-1.75862765,-28.1204319,27.27272606,-110.9909363,2.68637753,0.71256429,4.63708401,0.99889338,-0.02316978,-0.00715974,-0.04029759,0.00148325,-0.00127236,-0.00887215,0,0,0,0,1,1
1,1.49,149,-0.062649,-1.00131059,0.07007473,-0.46272907,-3.53749609,1.00176048,-52.26541901,5.67085648,-100.6723175,0.38973695,6.50298214,2.76864409,0.99809766,-0.00202438,-0.0567839,-0.02392674,-0.01344167,0.00375007,0.00410148,0,0,0,0,1,1
2,1.49,136,-0.02110459,-0.99941421,-0.02738446,-0.09959567,-3.43370986,0.41612142,-53.20081711,-14.41099072,-86.40748596,-0.4602713,-1.49530232,-3.70122433,0.99938363,0.00443556,0.01291199,0.03234302,0.01347809,-0.00428187,-0.00042649,0,0,0,0,1,1
4,1.49,149,0.01865768,-0.91770303,-0.39665565,0.80527872,-3.09769034,-1.76231897,-29.1727562,28.35428238,-111.8386459,2.6937499,0.71637338,4.60159206,0.99890417,-0.02323492,-0.00718834,-0.03998696,0.0002658,0.00221239,-0.00017188,0,0,0,0,1,1
1,1.5,150,-0.06128067,-0.99748868,0.07059,-0.08497751,-3.67209339,0.99395198,-51.82695007,5.70008755,-100.7600098,0.43547192,6.65161848,2.7309041,0.99803036,-0.0024103,-0.05808722,-0.02356866,-0.01352962,0.00429881,0.00019198,0,0,0,0,1,1
2,1.5,137,-0.02848973,-1.0017786,-0.01314542,-0.20657952,-3.50392413,0.52131259,-53.20081711,-14.41099072,-86.40748596,-0.461952,-1.50133765,-3.73611188,0.99937296,0.00445586,0.0129628,0.03264767,0.01755949,0.01045155,0.00168756,0,0,0,0,1,1
4,1.5,150,0.01706081,-0.92536831,-0.40024701,0.48918068,-3.1338985,-1.6426928,-28.85121346,27.79888916,-111.4878693,2.69796658,0.71894515,4.56626797,0.99891543,-0.02327299,-0.00720506,-0.03967824,0.0019665,0.00228002,0.00828588,0,0,0,0,1,1
1,1.51,151,-0.06225275,-0.99579161,0.06985156,0.72181267,-3.71472883,0.89977551,-51.71002579,5.75855017,-101.0523224,0.44545743,6.64511299,2.69501567,0.9980408,-0.00251681,-0.05803183,-0.02325133,-0.01034112,0.00298058,-0.001108,0,0,0,0,1,1
2,1.51,138,-0.01612621,-0.99842787,-0.00822784,-0.17163646,-3.41356516,0.3122701,-53.28851318,-13.79713535,-86.17362976,-0.46329141,-1.50526571,-3.77014709,0.99936271,0.00447252,0.01299534,0.03294476,0.00506195,0.01534741,-0.0015483,0,0,0,0,1,1
4,1.51,151,0.0157863,-0.9297539,-0.40042275,0.52627271,-3.04831743,-1.50216115,-28.85121346,27.79888916,-111.4878693,2.70258355,0.7205714,4.53228855,0.99892616,-0.02331482,-0.00721392,-0.0393814,0.003302,0.0039841,0.01229437,0,0,0,0,1,1
1,1.52,152,-0.07039694,-0.99932867,0.07385562,0.65241438,-3.81966114,0.74076313,-51.00847626,4.44314528,-100.4676971,0.45485747,6.640275,2.65807343,0.99805045,-0.00261837,-0.05799077,-0.02292504,-0.0031396,0.00658271,0.00411205,0,0,0,0,1,1
2,1.52,139,-0.01007986,-0.99890995,-0.01971725,-0.22368716,-2.65463972,0.32177386,-53.31774139,-14.08944702,-86.37825012,-0.46523017,-1.50910914,-3.79658842,0.99935454,0.00449353,0.01302727,0.0331757,-0.00103887,0.00390046,-0.0007941,0,0,0,0,1,1
4,1.52,152,0.01371885,-0.92931479,-0.3996323,0.58190548,-3.03241348,-1.31042695,-29.28968048,27.79888916,-110.6109314,2.73495507,0.65319943,4.49686956,0.99893463,-0.02362238,-0.00663045,-0.03908477,0.00508266,0.0042946,0.0115445,0,0,0,0,1,1
1,1.53,153,-0.07805482,-1.00103283,0.07464421,0.48354256,-4.60353661,0.69595581,-51.00847626,4.44314528,-100.4676971,0.46311387,6.63641882,2.61310482,0.99806118,-0.00271382,-0.05795777,-0.02252938,0.00398123,0.0071284,0.00725806,0,0,0,0,1,1
2,1.53,140,-0.00072312,-1.00056124,-0.01474527,-0.20677823,-3.03327012,0.28217494,-53.08389282,-13.94329166,-85.99824524,-0.46696413,-1.51264548,-3.82682014,0.99934536,0.00451312,0.01305642,0.03343966,-0.01043719,0.00891694,0.0009238,0,0,0,0,1,1
4,1.53,153,0.01084753,-0.92242956,-0.3991777,0.60115337,-2.86024642,-1.16868925,-29.31891251,28.58813095,-111.1078644,2.74041438,0.65253645,4.46594429,0.99894404,-0.02367199,-0.00662015,-0.038815,0.00702671,0.00121677,0.00515788,0,0,0,0,1,1
1,1.54,154,-0.08328275,-1.00512576,0.07016595,1.10038245,-5.27408791,0.77043951,-51.35925293,5.75855017,-99.85384369,0.47806725,6.63227081,2.5626359,0.99807268,-0.0028704,-0.05792332,-0.02208244,0.0083273,0.00219525,0.01198431,0,0,0,0,1,1
2,1.54,141,0.00814709,-1.00209582,-0.0221386,-0.1339599,-3.21342587,0.61134058,-53.25928116,-14.03098488,-86.31978607,-0.45782325,-1.3134371,-3.85657763,0.99935853,0.00437839,0.01132064,0.03369191,-0.01847484,0.00153733,0.00268784,0,0,0,0,1,1
4,1.54,154,0.00827704,-0.91628939,-0.39947948,0.51439291,-2.89588737,-1.06533301,-29.34814262,28.52966881,-111.1955566,2.74501228,0.65078723,4.43510056,0.99895364,-0.02371445,-0.00660007,-0.03854623,0.00953623,-0.00185678,-0.00023093,0,0,0,0,1,1
1,1.55,155,-0.09258216,-1.00734389,0.06517968,-0.0046602,-4.22695017,0.69619131,-51.47617722,4.99853849,-100.2338486,0.43940696,6.39330816,2.52439284,0.99819916,-0.00259932,-0.05583357,-0.02177948,0.01601898,-0.00288157,0.01548902,0,0,0,0,1,1
2,1.55,142,0.00605994,-1.00254297,-0.02432059,0.22224496,-4.61891842,0.87058032,-53.25928116,-14.03098488,-86.31978607,-0.4552511,-1.32322824,-3.90259337,0.99934417,0.00436341,0.01140503,0.03409327,-0.01383382,-0.00079404,0.00307273,0,0,0,0,1,1
4,1.55,155,0.00685101,-0.91283715,-0.39778492,0.54917443,-2.75709224,-1.08047831,-28.50043869,28.14966393,-111.400177,2.74996328,0.64973068,4.40546894,0.99896258,-0.02375967,-0.00658639,-0.03828784,0.01091223,-0.00194251,-0.00408205,0,0,0,0,1,1
1,1.56,156,-0.09470876,-1.0040549,0.06270006,-0.52488911,-2.79087663,0.82207382,-52.14849472,5.46623802,-99.64922333,0.43634278,6.3869791,2.49533582,0.99820781,-0.002588,-0.05577721,-0.02152814,0.01560306,-0.0045952,0.01215475,0,0,0,0,1,1
2,1.56,143,-0.00034222,-1.00024045,-0.02456407,0.27373549,-6.00175619,1.01102877,-53.63928604,-14.2648344,-86.02747345,-0.45203456,-1.33474433,-3.9624002,0.99932516,0.00434478,0.01150416,0.03461487,-0.00765979,-0.00112012,0.00068126,0,0,0,0,1,1
4,1.56,156,0.00634869,-0.911183,-0.39503205,0.37329304,-2.63670731,-1.00999212,-29.31891251,26.54194641,-111.2832489,2.75319052,0.64850962,4.37723589,0.99897134,-0.02378983,-0.00657096,-0.0380418,0.01137803,-0.00026943,-0.00678167,0,0,0,0,1,1
1,1.57,157,-0.09015017,-1.00351083,0.06685209,-0.48105505,-2.06064796,0.93505239,-52.06079865,5.67085648,-100.3800049,0.43314663,6.37903214,2.47348619,0.99821585,-0.0025723,-0.0557069,-0.02133971,0.01104725,-0.00036102,0.01099269,0,0,0,0,1,1
2,1.57,144,-0.01435217,-0.99542648,-0.02207233,0.82708883,-6.64499474,1.0149622,-53.34697342,-14.11867905,-86.2028656,-0.44321966,-1.34644008,-4.0287323,0.999304,0.00427815,0.01160634,0.0351928,0.00606688,0.00117347,-0.00437949,0,0,0,0,1,1
4,1.57,157,0.00532437,-0.91344106,-0.39375773,0.44295576,-2.63602304,-1.0791837,-29.31891251,26.54194641,-111.2832489,2.7820425,0.50703692,4.34277344,0.99898183,-0.02409024,-0.00534,-0.03776989,0.01177893,0.00169858,-0.00532277,0,0,0,0,1,1
1,1.58,158,-0.08215766,-1.00226629,0.07139402,-0.17700259,-2.10937452,1.10393989,-51.76848984,5.67085648,-100.4384689,0.43306327,6.36942816,2.45161986,0.99822456,-0.00258401,-0.05562272,-0.02114969,0.00322566,0.00427392,0.00852062,0,0,0,0,1,1
2,1.58,145,-0.02458868,-0.99603885,-0.01810282,0.91543627,-6.64093828,0.7868495,-53.66851807,-14.29406548,-86.17362976,-0.43352151,-1.35584772,-4.09508705,0.9992829,0.00420323,0.01168893,0.03577074,0.01613316,0.00498648,-0.00398165,0,0,0,0,1,1
4,1.58,158,0.00533198,-0.91659325,-0.39330164,0.31752622,-2.70444441,-1.21988499,-29.28968048,28.17889404,-111.341713,2.78475976,0.50748539,4.31308794,0.99899095,-0.02411517,-0.00533855,-0.03751088,0.00994927,0.00311627,-0.00269564,0,0,0,0,1,1
1,1.59,159,-0.0797867,-1.00001454,0.07416541,0.14634721,-2.12284207,0.94530791,-51.76848984,4.96930695,-100.4384689,0.43621814,6.36141253,2.43033743,0.99823225,-0.00262332,-0.05555299,-0.02096311,0.0011319,0.00713882,0.00601247,0,0,0,0,1,1
2,1.59,146,-0.0263106,-0.99747372,-0.0198165,0.34500274,-4.97454405,0.5155158,-53.43466949,-14.46945286,-86.17362976,-0.41794953,-1.52440274,-4.14591837,0.99924886,0.00412576,0.01316181,0.0362171,0.01703546,0.0031233,-0.00252695,0,0,0,0,1,1
4,1.59,159,0.00542314,-0.91764784,-0.39357334,0.1932952,-2.87736225,-1.29260242,-28.9096756,28.52966881,-111.5755615,2.78619719,0.50791609,4.28153372,0.99900091,-0.02412902,-0.00533614,-0.03723563,0.00987181,0.00330501,-0.00162714,0,0,0,0,1,1
1,1.6,160,-0.07920862,-0.9976607,0.07626287,0.53846967,-1.89219809,0.7432251,-51.8561821,5.02776957,-100.3800049,0.53331566,6.35249281,2.41427422,0.99823695,-0.0034786,-0.05549256,-0.02077655,0.00085343,0.00888591,0.00370807,0,0,0,0,1,1
2,1.6,147,-0.02262847,-0.99805236,-0.02790325,0.3494696,-2.76706743,0.48904637,-53.43466949,-14.46945286,-86.17362976,-0.41414496,-1.52992797,-4.17353153,0.9992395,0.0040975,0.01321021,0.03645761,0.01114702,-0.00515259,-0.00171255,0,0,0,0,1,1
4,1.6,160,0.00666583,-0.91833001,-0.39009622,-0.124501,-3.03373241,-1.31385303,-29.20198822,28.88044357,-111.1663208,2.78444123,0.50791991,4.2484827,0.99901205,-0.02411526,-0.00532864,-0.03694758,0.00862664,0.00672509,-0.00254178,0,0,0,0,1,1
1,1.61,161,-0.07683834,-0.99997884,0.0828499,0.49240744,-2.39646125,0.51747441,-51.50540543,5.49546909,-100.4092331,0.54015124,6.34896612,2.39122438,0.99824256,-0.00354996,-0.05546236,-0.02057263,-0.00209658,0.01402239,0.00591869,0,0,0,0,1,1
2,1.61,148,-0.01743275,-0.9999578,-0.02498129,0.42082539,-2.90599656,0.50411773,-53.7269783,-15.14177132,-86.0859375,-0.40960917,-1.53563046,-4.20254278,0.99922979,0.00406312,0.01326035,0.03671021,0.00587957,-0.00228253,0.00022827,0,0,0,0,1,1
4,1.61,161,0.00737832,-0.91937906,-0.38855398,-0.68796486,-2.89730096,-1.17545867,-29.55276108,28.00350761,-111.2540207,2.77708507,0.50719315,4.21726656,0.99902362,-0.02405281,-0.00531338,-0.03667593,0.00790871,0.0086714,-0.00228158,0,0,0,0,1,1
1,1.62,162,-0.07626109,-1.00030959,0.08251448,0.10198558,-2.48754311,0.10193085,-51.56386948,4.44314528,-100.7015457,0.54312408,6.34965277,2.366822,0.99824649,-0.00358754,-0.05546811,-0.02035858,-0.0027318,0.01359817,0.0061148,0,0,0,0,1,1
2,1.62,149,-0.00427892,-1.00067997,-0.01794743,0.25900707,-3.07501435,0.4164826,-54.01929092,-13.5925169,-85.76439667,-0.40665799,-1.54049182,-4.23323631,0.99921948,0.0040425,0.01330261,0.03697765,-0.00735202,0.00470402,0.00104304,0,0,0,0,1,1
4,1.62,162,0.00661936,-0.91992903,-0.38824952,-0.79266924,-2.56944919,-1.03199518,-29.55276108,28.00350761,-111.2540207,2.87190056,0.39691544,4.18223524,0.99901748,-0.02491624,-0.00437472,-0.03639035,0.00817946,0.00888295,-0.00191607,0,0,0,0,1,1
1,1.63,163,-0.07996918,-1.00209606,0.077591,0.15213931,-2.27857924,0.26490992,-52.17772675,5.43700647,-100.1461563,0.54643762,6.34857178,2.34446216,0.9982509,-0.00362743,-0.05545858,-0.02016224,0.00062261,0.00851674,0.00827466,0,0,0,0,1,1
2,1.63,150,-0.00241536,-0.99974072,-0.02448795,0.51057303,-3.01249075,0.60676074,-53.75621033,-14.29406548,-86.05670929,-0.40120211,-1.54724085,-4.26329994,0.99920911,0.00400061,0.01336217,0.03723934,-0.00933674,-0.00193215,0.00023634,0,0,0,0,1,1
4,1.63,163,0.00396868,-0.92117035,-0.38848528,-0.47233376,-1.99923849,-0.76117408,-29.20198822,28.03273773,-111.341713,2.86689425,0.39598817,4.16089153,0.99902534,-0.02487371,-0.00436042,-0.03620467,0.00938765,0.00798443,-0.00066592,0,0,0,0,1,1
1,1.64,164,-0.08644184,-1.00084507,0.07230338,0.27149743,-1.96471488,0.62149847,-52.17772675,5.43700647,-100.1461563,0.55070615,6.34371805,2.32517767,0.99825639,-0.00367481,-0.05541642,-0.01999243,0.00721921,0.0032489,0.00794852,0,0,0,0,1,1
2,1.64,151,-0.00553412,-0.99679732,-0.01509313,0.88430923,-4.10337734,0.65978801,-52.73311996,-15.02484608,-85.41362,-0.27405304,-1.4930284,-4.305933,0.99920523,0.00287913,0.01292969,0.03759534,-0.00611759,0.00677047,-0.00290746,0,0,0,0,1,1
4,1.64,164,-0.0002415,-0.91824132,-0.38863018,-0.06510372,-1.34155262,-0.57555068,-28.47120667,28.20812607,-111.2540207,2.86605597,0.39596191,4.14629459,0.99903017,-0.02486696,-0.00435675,-0.03607745,0.01356934,0.00660238,-0.00325936,0,0,0,0,1,1
1,1.65,165,-0.09701592,-0.99727184,0.07075802,0.79894257,-1.42031729,1.12184525,-51.09616852,4.12160206,-99.91230774,0.5839057,6.09663725,2.32601905,0.9983719,-0.00400792,-0.05326971,-0.01999705,0.01712392,0.00169457,0.00621307,0,0,0,0,1,1
2,1.65,152,-0.00143473,-0.99907428,-0.01144531,1.27591825,-4.88115931,0.57649171,-52.73311996,-15.02484608,-85.41362,-0.26075345,-1.49977374,-4.35482359,0.99918866,0.00277091,0.01299169,0.03802025,-0.00950107,0.00870068,-0.00065359,0,0,0,0,1,1
4,1.65,165,-0.00254576,-0.91274697,-0.39029342,0.57197654,-0.57977116,-0.35249653,-29.34814262,27.41888237,-111.5755615,2.87170029,0.39690554,4.13954067,0.99903095,-0.02491613,-0.00436529,-0.03601814,0.01586019,0.00262396,-0.00746702,0,0,0,0,1,1
1,1.66,166,-0.09637786,-0.99991268,0.07645319,1.18747878,-1.19026458,1.55980527,-51.30078888,6.138556,-99.47383881,0.59684473,6.08188057,2.31545496,0.99838006,-0.00412819,-0.05314302,-0.0198998,0.01262412,0.00669266,0.00865931,0,0,0,0,1,1
2,1.66,153,-0.00302995,-0.99755794,-0.01420481,1.04534566,-4.01791954,0.62410402,-53.14235687,-14.00175381,-85.38439178,-0.24986799,-1.50682116,-4.39504814,0.99917471,0.00268291,0.01305581,0.03836986,-0.00804922,0.00570951,-0.00214887,0,0,0,0,1,1
4,1.66,166,-0.00424389,-0.90613371,-0.38757199,1.03112495,-0.11172092,-0.27375937,-28.96813774,28.20812607,-111.1663208,2.88200355,0.3989827,4.13736248,0.99902934,-0.02500538,-0.00438616,-0.03599831,0.01754011,0.00199921,-0.01460558,0,0,0,0,1,1
1,1.67,167,-0.08814319,-1.00491202,0.08597048,0.54499865,-1.24968529,1.32031941,-52.06079865,6.02163124,-99.82460785,0.60341448,6.06957006,2.30325842,0.99838763,-0.00419327,-0.05303647,-0.01979117,0.00325933,0.0157371,0.01254814,0,0,0,0,1,1
2,1.67,154,-0.00642602,-0.99482346,-0.01154238,1.06268358,-4.27664042,0.62086856,-53.63928604,-14.06021595,-85.61824036,-0.23875645,-1.5138737,-4.43785524,0.99915981,0.00259328,0.01312006,0.03874194,-0.00481804,0.00813877,-0.00497318,0,0,0,0,1,1
4,1.67,167,-0.0051266,-0.90107149,-0.38630328,1.20625472,0.5815649,-0.26256809,-28.73428726,27.68196487,-111.1370926,2.93411303,0.21027508,4.14332151,0.99901891,-0.02551907,-0.0027587,-0.03609055,0.01761258,0.00053078,-0.01969884,0,0,0,0,1,1
1,1.68,168,-0.07541131,-1.00582635,0.0844412,-0.13647722,-1.03148663,1.0221324,-51.79771805,6.37240553,-100.1753845,0.60293728,6.06009531,2.29212999,0.99839395,-0.00419594,-0.05295342,-0.01969496,-0.00958542,0.01411796,0.01094797,0,0,0,0,1,1
2,1.68,155,-0.00506743,-0.99654621,-0.00708752,1.11682153,-4.26177168,0.70784795,-53.23004913,-14.5863781,-85.91055298,-0.2271048,-1.52178681,-4.48049974,0.99914467,0.00249927,0.01319206,0.03911253,-0.00628334,0.01241026,-0.00329674,0,0,0,0,1,1
4,1.68,168,-0.00425528,-0.90192294,-0.38373286,1.45310283,0.99752384,-0.22040103,-28.73428726,27.68196487,-111.1370926,2.94870734,0.21624306,4.15152502,0.99901301,-0.02564422,-0.00281716,-0.03616037,0.0143021,0.00244362,-0.02003769,0,0,0,0,1,1
