SensorId, TimeStamp (s), FrameNumber, AccX (g), AccY (g), AccZ (g), GyroX (deg/s), GyroY (deg/s), GyroZ (deg/s), MagX (uT), MagY (uT), MagZ (uT), EulerX (deg), EulerY (deg), EulerZ (deg), QuatW, QuatX, QuatY, QuatZ, LinAccX (g), LinAccY (g), LinAccZ (g), Pressure (kPa), Altitude (m), Temperature (degC), HeaveMotion (m),Clase 
4,-0.0001,0,0.03392709,-0.79309618,-0.60242212,0.38818264,-0.47617096,-0.27768448,-46.76995087,-49.69307327,-50.62847137,0,0,0,1,0,0,0,0,0,0,0,0,0,0,2
4,0.0099,1,0.03343166,-0.79454154,-0.60360068,0.0691748,-0.49248958,-0.37582871,-46.76995087,-49.69307327,-50.62847137,0,0,0,1,0,0,0,0,0,0,0,0,0,0,2
4,0.0199,2,0.03540899,-0.7931698,-0.60144579,-0.03860053,-0.30085486,-0.50961101,-46.38994217,-50.86231995,-50.62847137,0,0,0,1,0,0,0,0,0,0,0,0,0,0,2
4,0.0299,3,0.0375047,-0.79462618,-0.60170704,0.26311702,-0.33575267,-0.44692987,-46.47763824,-51.21309662,-50.59923935,0,0,0,1,0,0,0,0,0,0,0,0,0,0,2
4,0.0399,4,0.03848522,-0.79411024,-0.60371226,0.35206336,-0.38948667,-0.31022486,-46.33148193,-49.45922089,-49.66384125,0,0,0,1,0,0,0,0,0,0,0,0,0,0,2
4,0.0499,5,0.03953141,-0.79476905,-0.60445201,0.42218065,-0.30532002,-0.17059739,-46.56533051,-49.04998398,-50.10231018,0,0,0,1,0,0,0,0,0,0,0,0,0,0,2
4,0.0599,6,0.03522632,-0.79245299,-0.60046047,0.07424223,-0.02320386,0.06191818,-46.56533051,-49.04998398,-50.10231018,0,0,0,1,0,0,0,0,0,0,0,0,0,0,2
4,0.0699,7,0.03060419,-0.79221594,-0.60021764,0.08190382,0.13415895,0.14955735,-46.18532562,-48.90382767,-50.89155197,0,0,0,1,0,0,0,0,0,0,0,0,0,0,2
5,0.0001,0,0.29204416,-0.92708778,-0.19103283,0.04974787,-0.31515574,0.54447436,-45.01607513,15.11254025,-116.7494888,-0.57820046,-0.19094865,-2.15248275,0.99980938,0.00507613,0.00157125,0.01879099,-0.0007564,-0.0003906,-0.00940914,0,0,0,0,2
3,-0.0002,0,0.14530185,-0.9652428,0.22900414,-0.21895178,-0.3379015,-0.04684424,-55.65623856,20.87108994,-85.70593262,0.51009429,-0.04995682,-3.5056622,0.99952215,-0.00443598,0.00057191,0.03058565,0.000113,0.00185314,0.0026029,0,0,0,0,2
3,0.0098,1,0.14657696,-0.96450692,0.22845647,-0.50062072,-0.52926815,-0.01628965,-55.89009094,19.58491707,-85.38439178,0.50439185,-0.04859675,-3.50998878,0.9995212,-0.00438658,0.00055869,0.03062347,-0.00125226,0.00155972,0.0019588,0,0,0,0,2
4,0.0799,8,0.03054136,-0.79336339,-0.60090387,0.06211868,0.39275828,0.15470456,-46.00993729,-48.78690338,-50.89155197,0,0,0,1,0,0,0,0,0,0,0,0,0,0,2
4,0.0899,9,0.02992229,-0.7937746,-0.60200781,-0.06306387,0.51206702,0.22936991,-46.30224991,-48.90382767,-49.75153351,0,0,0,1,0,0,0,0,0,0,0,0,0,0,2
1,-0.0001,0,-0.1200403,-0.99204332,0.15730305,0.1666519,-0.11277752,0.17028031,-22.6834259,8.06781673,-82.3735733,0.45615295,-0.00268226,-2.83055019,0.99968708,-0.00397888,0.00012172,0.0246984,0.00887409,-0.00013763,0.01154696,0,0,0,0,2
1,0.0099,1,-0.12125599,-0.99302727,0.15746526,0.09346716,-0.04423185,0.29444104,-22.44957542,6.95702982,-82.51972961,0.45719227,-0.00551918,-2.83133769,0.99968684,-0.00398734,0.00014672,0.02470517,0.00993306,-0.00014653,0.01267187,0,0,0,0,2
1,0.0199,2,-0.1208306,-0.99212426,0.15487297,0.07272479,0.19883423,0.25163069,-22.88804436,7.07395506,-82.57819366,0.45773602,-0.00831922,-2.82969522,0.99968725,-0.00399148,0.00017121,0.02469075,0.00959734,-0.00258819,0.01135416,0,0,0,0,2
4,0.0999,10,0.03306311,-0.79758435,-0.6037631,-0.3129468,0.70006144,0.3079676,-46.30224991,-48.90382767,-49.75153351,0,0,0,1,0,0,0,0,0,0,0,0,0,0,2
4,0.1099,11,0.04028096,-0.80010301,-0.60183758,-0.50783527,0.64484715,0.50308979,-46.38994217,-50.16077042,-50.30692673,0,0,0,1,0,0,0,0,0,0,0,0,0,0,2
4,0.1199,12,0.04477906,-0.80045766,-0.60238707,-0.73627591,0.3676064,0.55528182,-46.21455765,-48.87459564,-50.6577034,0,0,0,1,0,0,0,0,0,0,0,0,0,0,2
4,0.1299,13,0.04355061,-0.79641253,-0.59995592,-0.82090718,-0.09262523,0.19970404,-46.56533051,-48.87459564,-50.30692673,0,0,0,1,0,0,0,0,0,0,0,0,0,0,2
4,0.1399,14,0.04305403,-0.79153699,-0.60025811,-0.74838859,-0.24239852,-0.13612989,-46.24378967,-48.55305481,-49.6053772,0,0,0,1,0,0,0,0,0,0,0,0,0,0,2
4,0.1499,15,0.0390479,-0.78558999,-0.5989635,-0.517654,-0.23938322,-0.29807612,-46.24378967,-48.55305481,-49.6053772,0,0,0,1,0,0,0,0,0,0,0,0,0,0,2
3,0.0198,2,0.14450707,-0.96620357,0.22840136,-0.4986282,-0.54769671,0.12252032,-53.58082199,18.76644325,-85.70593262,0.49863681,-0.04854356,-3.51481628,0.99952024,-0.00433637,0.00055687,0.03066561,0.00104794,0.00124162,0.00328108,0,0,0,0,2
3,0.0298,3,0.14701268,-0.96639526,0.22942504,0.22539106,-0.7539556,0.08816455,-55.18854141,20.19877243,-85.85208893,0.53329098,-0.01188105,-3.52209997,0.9995169,-0.00464844,0.00024665,0.03073046,-0.00120428,0.00208672,0.00405566,0,0,0,0,2
3,0.0398,4,0.15111083,-0.97130543,0.23063049,0.77442813,-0.1136061,0.30898187,-55.80239487,20.34492874,-85.85208893,0.54069775,-0.01461964,-3.52502251,0.99951577,-0.0047123,0.00027264,0.03075582,-0.00407515,0.00164165,0.00965928,0,0,0,0,2
3,0.0498,5,0.15029657,-0.97337049,0.22682169,0.26270676,0.49080768,0.43722567,-55.80239487,20.34492874,-85.85208893,0.54384392,-0.01999872,-3.52166653,0.99951661,-0.00473831,0.00032027,0.03072632,-0.00317391,-0.00261862,0.01070412,0,0,0,0,2
3,0.0598,6,0.1459883,-0.96997994,0.23039785,-0.12608749,0.73247874,0.45634204,-55.59777832,16.92487526,-86.67056274,0.54349166,-0.02611998,-3.51547694,0.99951828,-0.00473362,0.00037331,0.03067208,0.00061384,0.00160357,0.00758303,0,0,0,0,2
4,0.1599,16,0.03331369,-0.78181815,-0.59898013,-0.31672606,-0.05306486,-0.38132894,-46.56533051,-49.04998398,-50.07307816,0,0,0,1,0,0,0,0,0,0,0,0,0,0,2
5,0.0101,1,0.29452232,-0.92563331,-0.18979727,-0.21409452,-0.5607757,0.52445245,-44.0222168,13.50482273,-117.0710297,-0.58156264,-0.19720095,-2.15607381,0.99980849,0.00510654,0.00162509,0.01882264,-0.00372363,0.00058465,-0.01026011,0,0,0,0,2
5,0.0201,2,0.28908068,-0.92717052,-0.18895932,-0.28422514,-0.63227779,0.57621914,-44.25606537,15.52177715,-117.217186,-0.60191447,-0.25945431,-2.15984917,0.99980581,0.00529439,0.00216473,0.0188587,0.00151084,0.00183012,-0.01058713,0,0,0,0,2
5,0.0301,3,0.2823146,-0.93055117,-0.19034036,-0.30237412,-0.6295169,0.45383337,-45.13300323,15.25869656,-117.27565,-0.60637462,-0.26516145,-2.16395974,0.99980479,0.00533433,0.0022136,0.01889491,0.0082084,0.00141919,-0.00917182,0,0,0,0,2
5,0.0401,4,0.28234336,-0.92932749,-0.19311056,-0.27351075,-0.07225896,0.46674845,-44.13914108,14.76176548,-117.1879578,-0.60892826,-0.26986736,-2.16292143,0.99980479,0.00535736,0.00225429,0.01888612,0.00788885,-0.00148302,-0.00980405,0,0,0,0,2
4,0.1699,17,0.03004813,-0.78146189,-0.59849042,-0.18814537,0.30496496,-0.42499337,-46.50687027,-48.75767136,-50.3946228,0,0,0,1,0,0,0,0,0,0,0,0,0,0,2
4,0.1799,18,0.03041341,-0.78495967,-0.60091519,0.36237222,0.20083795,-0.31657109,-46.41917419,-48.49459076,-50.71616364,0,0,0,1,0,0,0,0,0,0,0,0,0,0,2
4,0.1899,19,0.0320856,-0.7916798,-0.59929419,0.70010877,0.09705096,-0.25592139,-46.06840134,-50.33615875,-50.10231018,0,0,0,1,0,0,0,0,0,0,0,0,0,0,2
4,0.1999,20,0.03652859,-0.79644036,-0.59831578,0.52533132,-0.21179093,-0.37995449,-46.06840134,-50.33615875,-50.10231018,0,0,0,1,0,0,0,0,0,0,0,0,0,0,2
4,0.2099,21,0.03892314,-0.7993657,-0.60237813,0.2081995,-0.47005925,-0.44765815,-46.09763336,-48.78690338,-50.10231018,0,0,0,1,0,0,0,0,0,0,0,0,0,0,2
4,0.2199,22,0.03960177,-0.79967219,-0.60219854,0.04763492,-0.34945095,-0.45945686,-46.33148193,-49.92692184,-50.5407753,0,0,0,1,0,0,0,0,0,0,0,0,0,0,2
4,0.2299,23,0.03979367,-0.79934436,-0.59951001,0.03020803,-0.38342452,-0.49460217,-46.50687027,-49.19614029,-50.33615875,0,0,0,1,0,0,0,0,0,0,0,0,0,0,2
4,0.2399,24,0.03733043,-0.79692858,-0.59819949,-0.16431834,-0.43311465,-0.64837784,-45.83454895,-49.45922089,-50.24846649,0,0,0,1,0,0,0,0,0,0,0,0,0,0,2
4,0.2499,25,0.03313685,-0.7945509,-0.59859908,-0.14608017,-0.52204931,-0.47589809,-45.83454895,-49.45922089,-50.24846649,0,0,0,1,0,0,0,0,0,0,0,0,0,0,2
4,0.2599,26,0.02894521,-0.79497659,-0.59885257,0.0671725,-0.63613647,-0.18005691,-46.30224991,-48.93305969,-49.63460922,0,0,0,1,0,0,0,0,0,0,0,0,0,0,2
4,0.2699,27,0.02671684,-0.79644638,-0.60271698,-0.14753097,-0.44815776,-0.20677567,-46.27301788,-48.93305969,-50.24846649,0,0,0,1,0,0,0,0,0,0,0,0,0,0,2
3,0.0698,7,0.14257325,-0.96455306,0.23124787,-0.34029374,0.54303926,0.26125324,-54.80853653,19.7603035,-86.02747345,0.54080111,-0.02991587,-3.51033425,0.99951977,-0.00470915,0.00040549,0.03062707,0.00316136,0.00366729,0.00203273,0,0,0,0,2
3,0.0798,8,0.14275098,-0.96243119,0.23094347,-0.11233357,0.04259364,0.06365506,-55.59777832,20.2864666,-85.91055298,0.55919421,-0.05663506,-3.51014495,0.99951893,-0.00486244,0.00064345,0.03062421,0.00252771,0.00377936,-0.00005462,0,0,0,0,2
3,0.0898,9,0.14438501,-0.96282625,0.22912523,-0.10006468,0.16679372,-0.29950508,-56.06547546,18.62028694,-86.46594238,0.5585233,-0.05410154,-3.50771284,0.99951971,-0.00485728,0.00062107,0.03060311,0.00059345,0.00167708,0.00017136,0,0,0,0,2
4,0.2799,28,0.02684659,-0.79386926,-0.59975487,-0.23822509,-0.18916897,-0.23499756,-46.1560936,-49.16690826,-50.68693161,0,0,0,1,0,0,0,0,0,0,0,0,0,0,2
3,0.0998,10,0.14678779,-0.96734065,0.23208851,-0.31723323,0.56733334,-0.60749412,-56.06547546,18.62028694,-86.46594238,0.55637389,-0.04949391,-3.50041485,0.99952173,-0.0048398,0.00058,0.03053967,-0.00097861,0.00359741,0.00552373,0,0,0,0,2
3,0.1098,11,0.1473745,-0.96596432,0.22893995,-0.3171123,0.74029619,-0.57014334,-55.62701035,20.2864666,-86.26132965,0.55446196,-0.04565383,-3.49153161,0.99952424,-0.00482419,0.00054562,0.03046235,-0.00177995,0.00086925,0.00359471,0,0,0,0,2
3,0.1198,12,0.14882585,-0.96943563,0.22645876,-0.22979446,1.43314099,-0.52461332,-55.36392975,19.46799088,-86.14440155,0.55440241,-0.04383487,-3.47621298,0.99952817,-0.00482422,0.00052909,0.03032881,-0.00275331,-0.00230214,0.0066155,0,0,0,0,2
3,0.1298,13,0.14645649,-0.97035998,0.22737181,-0.37192458,2.17739058,-0.46203789,-56.15317154,20.87108994,-85.93978119,0.52469569,-0.05320673,-3.45327663,0.9995355,-0.00456275,0.00060206,0.03012851,-0.00028347,-0.0014882,0.00735952,0,0,0,0,2
3,0.1398,14,0.14541852,-0.971443,0.22683015,-0.40784428,2.22957253,-0.49620128,-55.9777832,20.40339088,-86.05670929,0.523965,-0.05348943,-3.43009925,0.99954158,-0.00455642,0.00060342,0.02992633,0.00075545,-0.00185887,0.00813155,0,0,0,0,2
1,0.0299,3,-0.11621131,-0.98984128,0.15413888,0.19604123,0.40888956,0.13732202,-23.18035698,7.89242887,-82.75357819,0.41938442,-0.05398018,-2.82795668,0.99968874,-0.00364707,0.00056123,0.02467417,0.00503362,-0.00282422,0.00849269,0,0,0,0,2
1,0.0399,4,-0.11280829,-0.99091989,0.15286644,0.02994368,0.87626511,-0.03453405,-22.47880745,7.22011089,-82.25665283,0.41872516,-0.05500038,-2.81927299,0.99969071,-0.00364114,0.00056971,0.02459839,0.00096085,-0.0037214,0.00898677,0,0,0,0,2
1,0.0499,5,-0.11201802,-0.99019259,0.15336548,0.15709072,0.77356791,-0.12576179,-22.47880745,7.22011089,-82.25665283,0.41941422,-0.05496183,-2.8112998,0.99969232,-0.0036472,0.00056927,0.02452883,0.00023927,-0.00312611,0.00825897,0,0,0,0,2
1,0.0599,6,-0.11128816,-0.98985964,0.1589516,0.15856656,0.70417017,-0.23211166,-22.24495697,7.42472935,-82.54895782,0.42017218,-0.05377423,-2.80385542,0.99969387,-0.00365411,0.00055883,0.02446392,-0.00052718,0.00243556,0.00867853,0,0,0,0,2
3,0.1498,15,0.1440679,-0.9673835,0.22622487,-0.38877523,1.79623187,-0.46780768,-55.33469772,19.78953552,-85.85208893,0.52280068,-0.05305413,-3.41117454,0.99954653,-0.00454648,0.00059856,0.02976128,0.00149441,-0.00153895,0.00388504,0,0,0,0,2
1,0.0699,7,-0.11438847,-0.99379259,0.15948761,0.28643614,0.46231028,-0.13817458,-22.85881233,7.30780458,-82.25665283,0.42249614,-0.05312844,-2.79878116,0.99969494,-0.00367454,0.00055353,0.02441966,0.00213872,0.00235318,0.01296438,0,0,0,0,2
4,0.2899,29,0.02955961,-0.79277998,-0.59912801,-0.06419476,0.22423376,-0.17883724,-46.1560936,-49.16690826,-50.68693161,0,0,0,1,0,0,0,0,0,0,0,0,0,0,2
4,0.2999,30,0.03258286,-0.79188347,-0.59777141,0.11440722,0.05028089,-0.06370259,-45.83454895,-48.96229172,-50.13153839,0,0,0,1,0,0,0,0,0,0,0,0,0,0,2
3,0.1598,16,0.15041324,-0.96521783,0.22784415,-0.10308748,0.67029154,-0.43108067,-55.33469772,19.78953552,-85.85208893,0.52286869,-0.05039508,-3.40359116,0.99954855,-0.0045478,0.00057509,0.02969524,-0.00500817,0.00052912,0.00307362,0,0,0,0,2
3,0.1698,17,0.15153094,-0.96471751,0.2311089,-0.10090846,0.21917969,-0.35088062,-55.27623367,19.96492195,-85.67670441,0.52230692,-0.04747924,-3.40054369,0.99954939,-0.00454367,0.00054939,0.02966878,-0.00602578,0.00382292,0.00346537,0,0,0,0,2
3,0.1798,18,0.14986029,-0.96484721,0.22723994,-0.27588299,0.02759664,-0.26766151,-55.86085892,20.49108505,-85.79362488,0.50830239,-0.00374439,-3.39845943,0.99955052,-0.00443284,0.00016419,0.02965236,-0.00425211,0.00010852,0.00250278,0,0,0,0,2
3,0.1898,19,0.14930509,-0.9662208,0.2259109,-0.09670016,-0.26768464,-0.13212892,-55.65623856,20.16954041,-85.85208893,0.50699377,-0.00185064,-3.40059257,0.99954998,-0.00442191,0.00014742,0.02967104,-0.00297197,-0.00131419,0.00345583,0,0,0,0,2
3,0.1998,20,0.14850293,-0.96758801,0.22409832,-0.16679139,-0.1816113,-0.0790291,-55.24700165,20.11107826,-85.67670441,0.50510752,-0.00067114,-3.40191293,0.99954969,-0.00440576,0.00013669,0.02968261,-0.00201895,-0.00334963,0.00426294,0,0,0,0,2
1,0.0799,8,-0.11724511,-0.99451381,0.15855448,0.39681247,0.15066795,0.03982385,-22.59573174,7.77550411,-82.51972961,0.41392234,-0.09870438,-2.79864812,0.999695,-0.00359003,0.00094931,0.0244171,0.00471336,0.00131983,0.01384936,0,0,0,0,2
4,0.3099,31,0.03486298,-0.79364079,-0.59828043,0.1522841,-0.26083428,-0.01784875,-46.03916931,-49.16690826,-50.19000244,0,0,0,1,0,0,0,0,0,0,0,0,0,0,2
3,0.2098,21,0.14721362,-0.97136903,0.22180441,0.08066653,0.40703443,0.03525588,-55.24700165,20.11107826,-85.67670441,0.50648117,-0.00193916,-3.39819455,0.99955058,-0.00441742,0.00014797,0.02965012,-0.00027771,-0.00642084,0.00722362,0,0,0,0,2
3,0.2198,22,0.14550368,-0.97353536,0.22078082,0.13478003,0.90828371,0.19945744,-55.36392975,20.5495472,-85.96901703,0.5090425,-0.00595837,-3.390095,0.99955261,-0.00443874,0.00018337,0.02957931,0.00163004,-0.00794027,0.008842,0,0,0,0,2
3,0.2298,23,0.14319143,-0.97264212,0.22151092,-0.07583287,0.75142062,0.26563844,-56.06547546,20.90032196,-85.5305481,0.4266701,-0.06200396,-3.38505888,0.99955672,-0.00370578,0.00065082,0.02953368,0.00351315,-0.00669022,0.0077991,0,0,0,0,2
3,0.2398,24,0.14209044,-0.96907729,0.22169209,0.06512237,0.21547194,0.15401299,-55.62701035,20.2864666,-85.93978119,0.42756113,-0.06400172,-3.38343072,0.99955714,-0.00371305,0.00066842,0.02951941,0.00336819,-0.00465059,0.00422957,0,0,0,0,2
1,0.0899,9,-0.11681969,-0.99393815,0.15717015,0.28904432,0.18417659,0.02457358,-22.1572628,8.24320412,-82.98742676,0.41660321,-0.09923504,-2.79656577,0.9996953,-0.00361332,0.00095444,0.02439889,0.00377911,0.00013926,0.01303205,0,0,0,0,2
1,0.0999,10,-0.1151783,-0.99038666,0.15383288,-0.05635197,0.57977688,0.05902098,-22.1572628,8.24320412,-82.98742676,0.41541767,-0.10072708,-2.79101491,0.99969655,-0.00360271,0.00096703,0.02435043,0.00256309,-0.00263731,0.00886708,0,0,0,0,2
1,0.1099,11,-0.11469173,-0.98802823,0.15211028,0.0109448,0.89328593,0.12191991,-22.80035019,7.77550411,-82.4905014,0.41454557,-0.10332806,-2.78242874,0.99969834,-0.00359462,0.00098927,0.02427545,0.00232879,-0.00396792,0.00624034,0,0,0,0,2
4,0.3199,32,0.03547231,-0.79390717,-0.60096741,-0.02471498,-0.29434586,-0.10190724,-46.18532562,-49.28383636,-49.95615387,0,0,0,1,0,0,0,0,0,0,0,0,0,0,2
1,0.1199,12,-0.11450948,-0.98948306,0.15475827,0.01167504,0.80635512,0.18791489,-23.29728127,7.19087982,-82.40280151,0.41381484,-0.1064358,-2.77478075,0.99970001,-0.00358766,0.00101598,0.02420864,0.0018953,-0.00154742,0.00804226,0,0,0,0,2
1,0.1299,13,-0.11299077,-0.9941563,0.15930717,0.29722098,0.8269608,0.30759415,-22.33265114,8.24320412,-82.60742188,0.43992564,-0.10659301,-2.76707721,0.99970078,-0.00381548,0.00102262,0.02414119,-0.00024557,0.0021315,0.01314268,0,0,0,0,2
1,0.1399,14,-0.11092475,-0.99486178,0.15766992,0.52867788,0.89910758,0.37768164,-22.50803757,8.00935364,-82.54895782,0.44426048,-0.11173026,-2.75825763,0.99970245,-0.0038523,0.00106805,0.02406403,-0.00237747,0.00002887,0.01336956,0,0,0,0,2
1,0.1499,15,-0.10685302,-0.99534196,0.15725791,0.40473586,0.82823086,0.28952706,-22.50803757,8.00935364,-82.54895782,0.44741741,-0.11588311,-2.75013328,0.999704,-0.00387905,0.00110467,0.02399299,-0.00655372,-0.00051889,0.01333364,0,0,0,0,2
4,0.3299,33,0.03528559,-0.79450506,-0.60176849,-0.25500521,-0.30990836,-0.23684201,-46.74071884,-49.3422966,-51.00847626,0,0,0,1,0,0,0,0,0,0,0,0,0,0,2
5,0.0501,5,0.28796875,-0.93132031,-0.19122469,-0.2558876,-0.08658573,0.34349993,-44.13914108,14.76176548,-117.1879578,-0.61141723,-0.27339211,-2.16229939,0.99980462,0.00537965,0.00228466,0.0188809,0.00292355,0.00079519,-0.00660719,0,0,0,0,2
5,0.0601,6,0.28876209,-0.93144226,-0.19086525,-0.16535833,-0.2246123,0.32153153,-44.46068192,14.3232975,-116.778717,-0.6134755,-0.27699649,-2.16328669,0.99980438,0.00539822,0.00231572,0.01888972,0.00211661,0.00120762,-0.00632176,0,0,0,0,2
1,0.1599,16,-0.1007752,-0.99381191,0.15761137,0.3356581,0.7059409,0.11257639,-22.97573853,7.57088566,-81.93510437,0.44999516,-0.11810055,-2.74299788,0.99970543,-0.00390114,0.00112431,0.02393064,-0.01248374,0.00001553,0.01121461,0,0,0,0,2
1,0.1699,17,-0.09943757,-0.99156135,0.15861961,0.23460506,0.27048033,-0.04103704,-22.44957542,7.65857935,-82.43203735,0.45202416,-0.11811733,-2.74002147,0.99970597,-0.00391887,0.00112478,0.02390465,-0.01360378,0.00130693,0.00900507,0,0,0,0,2
3,0.2998,25,0.14234491,-0.96849662,0.22344586,0.46731052,0.02815291,-0.15976286,-55.3054657,20.49108505,-85.20899963,0.47903544,-0.04370775,-3.408916,0.99954885,-0.00416716,0.00050559,0.02974215,0.00342596,-0.00368492,0.00409506,0,0,0,0,2
3,0.3098,26,0.14038284,-0.96955997,0.22139335,0.22039689,0.21783999,-0.10596934,-56.27009583,20.37415886,-85.79362488,0.48153692,-0.04317765,-3.40689898,0.99954933,-0.00418913,0.00050154,0.02972457,0.00547316,-0.00599355,0.00438823,0,0,0,0,2
3,0.3198,27,0.14079438,-0.96771789,0.21951547,-0.06345101,0.47758526,-0.15561482,-56.27009583,20.37415886,-85.79362488,0.48164681,-0.04274862,-3.40186143,0.99955058,-0.00419022,0.00049764,0.02968064,0.00474842,-0.00743096,0.00226156,0,0,0,0,2
4,0.3399,34,0.03467439,-0.79313588,-0.59955502,-0.38118994,-0.05127723,-0.24685867,-46.74071884,-49.3422966,-51.00847626,0,0,0,1,0,0,0,0,0,0,0,0,0,0,2
3,0.3298,28,0.13843741,-0.96758312,0.22254547,-0.27526513,0.77128166,-0.10009975,-55.80239487,19.64337921,-85.91055298,0.43721524,-0.11647935,-3.39533687,0.9995535,-0.00378362,0.00112905,0.02962146,0.00683315,-0.00423803,0.00244659,0,0,0,0,2
3,0.3398,29,0.139732,-0.96767294,0.22478166,-0.29438147,0.99701172,-0.16636077,-55.77316666,19.81876564,-85.47208405,0.4357605,-0.11713268,-3.38493466,0.99955618,-0.00377087,0.00113403,0.02953071,0.00467231,-0.00149026,0.00320616,0,0,0,0,2
3,0.3498,30,0.14067604,-0.96990639,0.22883534,-0.29305932,0.71941501,-0.11834405,-55.36392975,20.08184814,-85.38439178,0.43390676,-0.11761592,-3.37730479,0.99955815,-0.00375465,0.00113752,0.02946416,0.00417349,0.00200035,0.00638225,0,0,0,0,2
4,0.3499,35,0.03485885,-0.7913118,-0.59934777,-0.32687855,-0.20827249,-0.12874524,-46.24378967,-50.57000732,-50.97924423,0,0,0,1,0,0,0,0,0,0,0,0,0,0,2
4,0.3599,36,0.03436565,-0.78985423,-0.59908503,-0.23750435,-0.31345826,-0.01043856,-46.62379456,-49.31306458,-50.13153839,0,0,0,1,0,0,0,0,0,0,0,0,0,0,2
1,0.2199,18,-0.10739923,-0.991651,0.15639813,0.02278692,-0.0797348,0.20718166,-22.6834259,7.57088566,-82.11049652,0.51379627,0.00134728,-2.75189018,0.99970168,-0.00448269,0.00009591,0.02401227,-0.00355993,-0.00198896,0.00964658,0,0,0,0,2
1,0.2299,19,-0.1119573,-0.99210149,0.15746158,0.25291008,0.14888406,0.16193794,-22.85881233,8.18474102,-82.02279663,0.5053618,-0.04693472,-2.7502923,0.99970233,-0.004399,0.0005153,0.02399648,0.00066857,-0.00098392,0.01074775,0,0,0,0,2
5,0.1601,7,0.29342565,-0.92737472,-0.18375351,-0.13173509,-0.13018389,0.02541067,-44.60683823,15.40485191,-116.369484,-0.59509093,-0.25630167,-2.19990587,0.99979955,0.00523509,0.00213652,0.01920792,-0.00358112,0.00709844,-0.01004916,0,0,0,0,2
5,0.1701,8,0.29714307,-0.9273876,-0.18163991,-0.51142502,0.38862339,0.04261002,-45.01607513,15.08330917,-116.9541092,-0.4771685,-0.14388297,-2.19105959,0.99980772,0.00418731,0.00117576,0.01912448,-0.00676139,0.00869035,-0.0093236,0,0,0,0,2
5,0.1801,9,0.30020982,-0.92665422,-0.18540177,-0.24344659,0.31804457,0.17772523,-45.10377121,15.63870239,-116.720253,-0.47846612,-0.14498828,-2.18701911,0.99980825,0.00419877,0.00118534,0.01908928,-0.00822914,0.00330568,-0.0084331,0,0,0,0,2
3,0.3598,31,0.14450893,-0.97073054,0.22767857,-0.68049204,0.32010183,-0.10878734,-55.71470261,20.40339088,-86.02747345,0.4276571,-0.11729626,-3.37298155,0.99955946,-0.00370026,0.00113299,0.02942652,0.00046316,0.00076479,0.00748419,0,0,0,0,2
3,0.3698,32,0.14694233,-0.97138071,0.22688752,-0.64234608,0.02441868,0.04344361,-56.03624725,19.7603035,-85.50131226,0.42133921,-0.11777852,-3.37190604,0.99956,-0.00364504,0.00113554,0.02941719,-0.00187952,-0.00002443,0.00829337,0,0,0,0,2
3,0.3798,33,0.14947106,-0.97155178,0.22216302,0.55936497,-0.12953056,0.08170968,-56.03624725,19.7603035,-85.50131226,0.35914648,-0.06598002,-3.36810923,0.99956316,-0.00311586,0.00066764,0.02938611,-0.00428713,-0.00438745,0.00779568,0,0,0,0,2
3,0.3898,34,0.14884734,-0.97128105,0.22004637,0.89483178,0.25180748,0.14117181,-55.62701035,19.87722778,-85.41362,0.36829343,-0.06792381,-3.36731529,0.99956304,-0.00319516,0.00068692,0.02937907,-0.00311587,-0.00565965,0.00697602,0,0,0,0,2
3,0.3998,35,0.14494783,-0.97147006,0.22011489,0.43756285,0.16336411,0.25933778,-55.89009094,20.11107826,-85.58900452,0.37277579,-0.0708175,-3.36696243,0.99956298,-0.00323352,0.0007133,0.02937588,0.00072186,-0.00574394,0.00660515,0,0,0,0,2
3,0.4098,36,0.14411806,-0.96898872,0.22422922,0.24188428,0.02537681,0.1346439,-55.3054657,20.22800255,-85.44285583,0.37515649,-0.07218678,-3.36737156,0.9995628,-0.00325393,0.00072586,0.0293794,0.00128683,-0.00123974,0.00498649,0,0,0,0,2
3,0.4198,37,0.14230129,-0.96756887,0.22628906,0.18636192,-0.04249876,-0.05786555,-55.51008606,19.96492195,-86.02747345,0.37696907,-0.07151585,-3.36792779,0.99956256,-0.00326991,0.00072049,0.02938426,0.0029483,0.00105133,0.00380037,0,0,0,0,2
3,0.4298,38,0.14120433,-0.96672642,0.2264722,0.23901378,-0.23254849,-0.11260125,-55.51008606,19.96492195,-86.02747345,0.40181601,-0.0955956,-3.37277269,0.99956048,-0.00348043,0.00093705,0.02942562,0.00382879,0.0012796,0.00286825,0,0,0,0,2
4,0.3699,37,0.03448877,-0.78985333,-0.59914589,0.192049,-0.04427577,0.06268372,-46.50687027,-49.80999756,-49.83922958,0,0,0,1,0,0,0,0,0,0,0,0,0,0,2
1,0.2399,20,-0.11560351,-0.99119335,0.1579423,0.52010584,0.20402756,0.28302482,-22.56650162,6.92779875,-82.22741699,0.51034451,-0.05006049,-2.74815965,0.99970257,-0.00444182,0.00054353,0.02397773,0.00373249,-0.00030497,0.01032663,0,0,0,0,2
1,0.2499,21,-0.11475368,-0.99489707,0.15601435,0.34337115,-0.00660686,0.34582245,-22.71265602,7.57088566,-82.28588104,0.5138222,-0.05347294,-2.74839211,0.99970233,-0.00447145,0.00057403,0.0239796,0.00245248,-0.00284094,0.013589,0,0,0,0,2
1,0.2599,22,-0.10952637,-0.99369448,0.1610883,0.16504939,-0.0259905,0.25997153,-22.71265602,7.57088566,-82.28588104,0.51553261,-0.05600013,-2.74887228,0.9997021,-0.00448584,0.00059646,0.02398368,-0.00274193,0.00231631,0.0125836,0,0,0,0,2
4,0.3799,38,0.03251594,-0.79143083,-0.59965652,0.40540442,-0.13248622,0.21353689,-46.41917419,-49.89768982,-50.21923447,0,0,0,1,0,0,0,0,0,0,0,0,0,0,2
4,0.3899,39,0.03300699,-0.79409152,-0.60097212,0.54778665,-0.20195968,0.26155898,-46.41917419,-49.89768982,-50.21923447,0,0,0,1,0,0,0,0,0,0,0,0,0,0,2
4,0.3999,40,0.03344152,-0.7984792,-0.60072458,0.63542145,-0.08243841,0.34910721,-46.59456253,-49.19614029,-50.01461411,0,0,0,1,0,0,0,0,0,0,0,0,0,0,2
1,0.2699,23,-0.11007291,-0.9922412,0.16207637,0.09376561,0.00804795,0.1233758,-22.85881233,7.92166042,-83.04589081,0.5164693,-0.0572332,-2.74888849,0.9997021,-0.00449375,0.00060741,0.02398377,-0.00208736,0.00348668,0.01136202,0,0,0,0,2
1,0.2799,24,-0.10909984,-0.98904794,0.16170175,0.00817817,-0.3057338,0.12979883,-22.47880745,7.19087982,-82.25665283,0.56304705,-0.01276913,-2.75111723,0.99969983,-0.0049094,0.00022935,0.02400488,-0.00251913,0.00338802,0.00806277,0,0,0,0,2
1,0.2899,25,-0.1076412,-0.98816198,0.16014479,-0.07775955,-0.58475274,0.12020291,-22.6834259,7.30780458,-82.75357819,0.56293237,-0.0130243,-2.75711346,0.99969858,-0.00490833,0.00023181,0.02405718,-0.00326567,0.00137289,0.00680669,0,0,0,0,2
1,0.2999,26,-0.10727675,-0.98978597,0.16194242,-0.02568279,-0.47993341,0.17555267,-22.82958221,6.138556,-82.98742676,0.563218,-0.01399579,-2.7621305,0.99969745,-0.00491061,0.00024056,0.0241009,-0.0038437,0.00290581,0.00862891,0,0,0,0,2
3,0.4398,39,0.14207132,-0.96910644,0.22804534,0.02772795,-0.30251592,-0.07989548,-55.48085403,20.02338409,-85.88131714,0.40167966,-0.09413315,-3.37554502,0.99955982,-0.00347959,0.00092435,0.02944985,0.00305578,0.00197063,0.00563692,0,0,0,0,2
3,0.4498,40,0.14291416,-0.96938449,0.22641018,-0.1306036,-0.13012601,-0.00854847,-55.86085892,20.92955208,-86.05670929,0.40022331,-0.09375452,-3.37659121,0.99955964,-0.00346698,0.0009207,0.029459,0.00222072,0.0003461,0.00567158,0,0,0,0,2
3,0.4598,41,0.14426167,-0.96752721,0.22785825,0.0267818,0.37284008,-0.035052,-56.09470749,20.31569672,-85.67670441,0.40102661,-0.09426214,-3.3729589,0.99956048,-0.00347388,0.00092523,0.02942729,0.00066592,0.00216408,0.00439157,0,0,0,0,2
5,0.1901,10,0.29310849,-0.92732263,-0.18599904,-0.4234584,0.50707567,0.21957451,-45.16223145,14.96638393,-117.0710297,-0.48092958,-0.14612272,-2.18058658,0.99980927,0.00422039,0.00119506,0.01903322,-0.00123908,0.00288722,-0.00980841,0,0,0,0,2
3,0.4698,42,0.1437705,-0.96776152,0.22725436,-0.08007285,0.56348127,-0.06749097,-55.74393463,20.02338409,-85.61824036,0.40105486,-0.09488194,-3.3672657,0.99956191,-0.00347402,0.00093047,0.02937761,0.00115559,0.0015138,0.00441448,0,0,0,0,2
3,0.4798,43,0.14218017,-0.96618366,0.22671187,-0.39876273,0.59794986,-0.12066655,-55.62701035,19.87722778,-85.35515594,0.39703208,-0.11845274,-3.36206222,0.99956322,-0.00343293,0.00113488,0.02933154,0.00237848,0.00137309,0.00254154,0,0,0,0,2
1,0.3099,27,-0.1103766,-0.99080628,0.1605795,0.13206074,-0.20004642,0.15003918,-22.82958221,6.138556,-82.98742676,0.56478029,-0.01516954,-2.76417851,0.99969697,-0.00492399,0.00025122,0.02411872,-0.00086795,0.00139067,0.00977083,0,0,0,0,2
1,0.3199,28,-0.1117748,-0.99220246,0.15976496,-0.11960219,-0.11608978,0.13773315,-22.44957542,7.71704149,-83.10435486,0.56374407,-0.01633195,-2.76566672,0.99969667,-0.0049147,0.0002612,0.02413165,0.00035734,0.0003702,0.01117632,0,0,0,0,2
4,0.4099,41,0.03325856,-0.7990967,-0.60012281,0.4942503,-0.16842514,0.31566978,-46.38994217,-48.93305969,-49.92692184,0,0,0,1,0,0,0,0,0,0,0,0,0,0,2
4,0.4199,42,0.03313415,-0.7990908,-0.60054988,0.24475753,0.00619341,0.14972109,-46.36071396,-49.19614029,-50.10231018,0,0,0,1,0,0,0,0,0,0,0,0,0,0,2
4,0.4299,43,0.03492726,-0.79529399,-0.59763116,0.19155696,0.02552351,0.01162024,-46.36071396,-49.19614029,-50.10231018,0,0,0,1,0,0,0,0,0,0,0,0,0,0,2
4,0.4399,44,0.03812885,-0.79460591,-0.59877813,0.3168135,-0.13130884,0.12821306,-46.33148193,-49.78076553,-50.45308304,0,0,0,1,0,0,0,0,0,0,0,0,0,0,2
3,0.4898,44,0.14376824,-0.96811855,0.22683108,-0.34668648,0.56395334,-0.19046046,-55.62701035,19.87722778,-85.35515594,0.39445445,-0.11787497,-3.35568857,0.99956501,-0.00341066,0.00112899,0.02927599,0.00078318,0.00112606,0.00466646,0,0,0,0,2
3,0.4998,45,0.14612989,-0.96681595,0.22482863,0.32391328,0.21941866,-0.2792908,-56.35778809,20.31569672,-85.73516083,0.39806601,-0.11564728,-3.35342264,0.99956542,-0.00344275,0.00111042,0.02925625,-0.00177519,-0.00055177,0.00331767,0,0,0,0,2
3,0.5098,46,0.15138425,-0.96894646,0.22639275,0.73014694,0.08172388,-0.29677132,-56.09470749,20.14031029,-86.34902191,0.40550515,-0.11293229,-3.3530252,0.9995653,-0.00350834,0.00108862,0.0292528,-0.00657109,0.00038144,0.00648186,0,0,0,0,2
3,0.5198,47,0.15058017,-0.96819878,0.22476012,-0.09929451,0.14905559,-0.24761282,-55.27623367,17.59719276,-85.88131714,0.40480179,-0.11086499,-3.35088849,0.99956596,-0.00350275,0.00107034,0.02923423,-0.0058951,-0.00108844,0.00528764,0,0,0,0,2
3,0.5298,48,0.14635091,-0.96785241,0.22113803,-0.0814478,-0.28359476,-0.306137,-55.62701035,20.08184814,-85.93978119,0.3508814,-0.11156598,-3.3509016,0.99956751,-0.00303224,0.0010627,0.02923483,-0.00184541,-0.00428962,0.00354517,0,0,0,0,2
3,0.5398,49,0.14215414,-0.96823883,0.22229642,0.13212743,-0.71671087,-0.2594178,-55.62701035,20.08184814,-85.93978119,0.3512626,-0.10741232,-3.35741472,0.99956584,-0.00303656,0.00102674,0.02929175,0.00241303,-0.00255198,0.00355358,0,0,0,0,2
1,0.3799,29,-0.10733858,-0.99348086,0.15946463,0.02298846,-0.02747094,0.05341485,-22.50803757,7.89242887,-83.10435486,0.5284279,0.00842346,-2.76866603,0.99969757,-0.00461182,0.00003792,0.0241589,-0.0047349,0.00013549,0.01189876,0,0,0,0,2
4,0.4499,45,0.03997798,-0.79314768,-0.59845215,0.08723419,-0.25198454,0.09604081,-46.41917419,-49.16690826,-50.95001221,0,0,0,1,0,0,0,0,0,0,0,0,0,0,2
3,0.5498,50,0.13823652,-0.96833855,0.22889966,-0.09593797,-0.85642105,-0.17568055,-56.09470749,20.84185982,-85.85208893,0.34916848,-0.10376892,-3.36514044,0.99956387,-0.00301916,0.00099463,0.02935925,0.00658588,0.00388444,0.00451678,0,0,0,0,2
4,0.4599,46,0.03929625,-0.79191422,-0.59959561,-0.05368182,-0.37273282,0.0794126,-45.98070526,-48.75767136,-50.68693161,0,0,0,1,0,0,0,0,0,0,0,0,0,0,2
4,0.4699,47,0.03911068,-0.7912429,-0.59970891,-0.42366067,-0.31984389,0.08900615,-46.85764313,-48.87459564,-50.51154709,0,0,0,1,0,0,0,0,0,0,0,0,0,0,2
1,0.3899,30,-0.10466439,-0.99267131,0.15882178,-0.1373037,-0.06403493,-0.01590558,-22.6834259,7.68781042,-82.98742676,0.52713192,0.00868447,-2.76942635,0.99969745,-0.00460056,0.0000354,0.02416554,-0.00631774,0.00000688,0.01070985,0,0,0,0,2
1,0.3999,31,-0.10618425,-0.99487656,0.15872277,-0.11927404,-0.08121526,0.00062501,-23.06343079,6.89856768,-82.63665771,0.52603829,0.00880876,-2.77035499,0.99969721,-0.00459105,0.00003412,0.02417364,-0.00504052,-0.00039421,0.01302949,0,0,0,0,2
1,0.4099,32,-0.10782479,-0.99392682,0.16042611,-0.24800818,0.21273285,-0.05679582,-23.06343079,6.89856768,-82.63665771,0.52333534,0.00903552,-2.76845813,0.9996978,-0.00456752,0.0000315,0.02415711,-0.00333276,0.00146809,0.01252813,0,0,0,0,2
4,0.4799,48,0.03510524,-0.79197878,-0.59953934,-0.38752711,-0.28506535,0.11817512,-46.85764313,-48.87459564,-50.51154709,0,0,0,1,0,0,0,0,0,0,0,0,0,0,2
1,0.4199,33,-0.10995192,-0.99277204,0.1573403,-0.08896067,0.35355306,-0.00093526,-22.88804436,5.96316862,-82.60742188,0.52205712,0.00848386,-2.76508546,0.99969852,-0.00455625,0.00003591,0.02412766,-0.00104776,-0.00138207,0.01116996,0,0,0,0,2
1,0.4299,34,-0.11062029,-0.9913289,0.15535678,-0.1608634,0.35266912,0.05147254,-22.65419388,7.71704149,-82.60742188,0.50070137,-0.00045529,-2.7632246,0.99969971,-0.00436806,0.00010932,0.02411109,-0.00023943,-0.00301258,0.00953038,0,0,0,0,2
1,0.4399,35,-0.11013412,-0.99183649,0.15638261,0.03952023,0.09438355,0.02316826,-22.36188316,7.1324172,-82.02279663,0.50099021,-0.0008424,-2.76230359,0.99969995,-0.0043705,0.00011273,0.02410304,-0.00091193,-0.00181401,0.0101252,0,0,0,0,2
1,0.4499,36,-0.10806666,-0.98847383,0.16044153,0.03954998,0.07697827,0.05712537,-22.80035019,6.81087399,-82.22741699,0.50130659,-0.00152987,-2.76157904,0.99970007,-0.00437312,0.00011876,0.02409669,-0.00267532,0.00269802,0.00719382,0,0,0,0,2
3,0.5598,51,0.13934776,-0.96860844,0.23101532,0.16895133,-0.7347973,-0.15520361,-56.21163177,19.55568504,-85.73516083,0.34986392,-0.10058817,-3.37210751,0.99956208,-0.00302598,0.00096724,0.02942011,0.00564827,0.00590293,0.0054003,0,0,0,0,2
3,0.5698,52,0.14378057,-0.97109991,0.22804335,0.30946243,-0.71679544,-0.20641069,-55.59777832,20.46185303,-85.73516083,0.35198992,-0.09694576,-3.37901402,0.99956024,-0.00304541,0.0009362,0.02948043,0.0015837,0.00242515,0.00780374,0,0,0,0,2
3,0.5798,53,0.14806156,-0.97058219,0.23045459,0.50286734,-0.54291755,-0.2376519,-55.27623367,18.79567337,-86.11517334,0.4273625,-0.05077067,-3.38379788,0.99955708,-0.00371472,0.00055297,0.02952304,-0.00239932,0.00451377,0.00845643,0,0,0,0,2
1,0.4599,37,-0.10909966,-0.98844475,0.16225596,0.07120485,0.40750635,0.05172647,-22.56650162,7.4539609,-82.54895782,0.501571,-0.00268376,-2.75758719,0.9997009,-0.00437519,0.00012873,0.02406183,-0.00169271,0.00449195,0.00754729,0,0,0,0,2
3,0.5898,54,0.14336202,-0.96816278,0.22991776,0.16828643,-0.07690335,-0.09323499,-56.29932785,19.96492195,-86.23209381,0.42894807,-0.04968699,-3.38458037,0.99955684,-0.00372883,0.00054395,0.0295299,0.00247852,0.00354463,0.00532494,0,0,0,0,2
3,0.5998,55,0.13828762,-0.96759373,0.22756785,-0.00814431,-0.04272335,-0.07619125,-56.29932785,19.96492195,-86.23209381,0.42883959,-0.04884865,-3.38479614,0.99955684,-0.0037281,0.00053662,0.02953181,0.00736098,0.00137925,0.00352328,0,0,0,0,2
1,0.4699,38,-0.11043721,-0.98994356,0.16028829,-0.01279031,0.07874668,0.13218646,-22.56650162,7.4539609,-82.54895782,0.50139326,-0.00411368,-2.75702596,0.99970108,-0.00437334,0.00014115,0.02405688,-0.00052035,0.00231867,0.00887626,0,0,0,0,2
4,0.4899,49,0.03407057,-0.79532707,-0.59531432,-0.22856544,-0.19820927,0.09889778,-46.8284111,-49.31306458,-49.72230148,0,0,0,1,0,0,0,0,0,0,0,0,0,0,2
4,0.4999,50,0.03308963,-0.79535508,-0.59336364,0.02143596,-0.40372258,0.03742715,-46.91610718,-48.61151505,-50.89155197,0,0,0,1,0,0,0,0,0,0,0,0,0,0,2
4,0.5099,51,0.03517769,-0.7977429,-0.59668714,0.11139116,-0.53869826,-0.14146505,-46.12686157,-48.75767136,-50.01461411,0,0,0,1,0,0,0,0,0,0,0,0,0,0,2
4,0.5199,52,0.03424466,-0.79612041,-0.59953368,-0.03191106,-0.34797361,-0.22215231,-46.74071884,-48.69921112,-49.78076553,0,0,0,1,0,0,0,0,0,0,0,0,0,0,2
4,0.5299,53,0.03590768,-0.79550612,-0.59982902,-0.050039,-0.29601014,-0.23826362,-46.74071884,-48.69921112,-49.78076553,0,0,0,1,0,0,0,0,0,0,0,0,0,0,2
4,0.5399,54,0.03905056,-0.79386181,-0.59968245,-0.24565655,-0.24638736,-0.12845913,-46.53609848,-50.83308792,-50.19000244,0,0,0,1,0,0,0,0,0,0,0,0,0,0,2
3,0.6098,56,0.14028254,-0.96827954,0.22496253,0.1666619,-0.23171377,-0.23462862,-56.06547546,20.432621,-86.02747345,0.43022218,-0.04603333,-3.38675761,0.9995563,-0.00374088,0.00051248,0.02954901,0.00543401,-0.00132875,0.00390862,0,0,0,0,2
3,0.6198,57,0.14126427,-0.9676891,0.22610974,-0.0618345,0.06139732,-0.10966506,-55.53931427,19.02952385,-85.47208405,0.42972082,-0.04510693,-3.38582778,0.99955648,-0.00373675,0.00050424,0.02954093,0.00444807,-0.0000947,0.00373214,0,0,0,0,2
4,0.5499,55,0.03837496,-0.79187101,-0.59837586,-0.44203931,-0.09247994,-0.06908245,-46.27301788,-48.69921112,-50.80385971,0,0,0,1,0,0,0,0,0,0,0,0,0,0,2
4,0.5599,56,0.03708121,-0.79333234,-0.59845728,-0.24581125,-0.2294209,-0.11069643,-46.00993729,-48.84536743,-50.3946228,0,0,0,1,0,0,0,0,0,0,0,0,0,0,2
4,0.5699,57,0.03708146,-0.79381937,-0.59846371,-0.14367884,-0.25560534,-0.06129227,-46.00993729,-48.84536743,-50.3946228,0,0,0,1,0,0,0,0,0,0,0,0,0,0,2
4,0.5799,58,0.03640075,-0.79453415,-0.5996328,-0.06011213,-0.15919843,-0.13139746,-46.06840134,-48.49459076,-49.75153351,0,0,0,1,0,0,0,0,0,0,0,0,0,0,2
4,0.5899,59,0.0364045,-0.79455382,-0.59823,-0.04241207,-0.15971012,-0.09688786,-46.59456253,-48.84536743,-50.62847137,0,0,0,1,0,0,0,0,0,0,0,0,0,0,2
4,0.5999,60,0.03492999,-0.79457963,-0.59646273,0.04626934,-0.1595065,-0.09878868,-45.98070526,-49.25460434,-50.71616364,0,0,0,1,0,0,0,0,0,0,0,0,0,0,2
4,0.6099,61,0.03301854,-0.79469842,-0.59677106,0.11688697,-0.12568687,-0.04733903,-46.71148682,-49.04998398,-50.21923447,0,0,0,1,0,0,0,0,0,0,0,0,0,0,2
3,0.6298,58,0.14011262,-0.96541274,0.22756258,-0.57566929,0.51127684,-0.15758198,-54.80853653,19.87722778,-85.70593262,0.44554508,-0.09606317,-3.38163757,0.9995569,-0.00386167,0.00095266,0.02950257,0.00509436,0.00179411,0.00168444,0,0,0,0,2
3,0.6398,59,0.14144193,-0.96496391,0.22592586,-0.47193211,0.40891212,-0.3324537,-56.41625214,20.52031517,-85.38439178,0.44158325,-0.09375204,-3.37625384,0.99955833,-0.00382775,0.0009313,0.02945572,0.00301487,0.00011098,0.0010909,0,0,0,0,2
3,0.6498,60,0.14319755,-0.96820235,0.23270142,0.14396279,0.18637437,-0.52403361,-56.41625214,20.52031517,-85.38439178,0.44344664,-0.08907126,-3.37349391,0.9995591,-0.00384523,0.00089086,0.02943179,0.00202268,0.00600975,0.0059483,0,0,0,0,2
3,0.6598,61,0.14642873,-0.97018969,0.23245433,0.564789,-0.00146403,-0.76818973,-55.3054657,19.99415398,-85.06284332,0.44927245,-0.08158039,-3.37258816,0.9995591,-0.00389798,0.00082698,0.0294241,-0.00078102,0.00525024,0.00828421,0,0,0,0,2
3,0.6698,62,0.14326462,-0.97129089,0.23294559,0.47832286,-0.17569642,-0.66690028,-55.53931427,20.69570351,-85.76439667,0.45397568,-0.07468275,-3.37347698,0.99955869,-0.00394077,0.00076805,0.02943206,0.00264312,0.00539515,0.00899283,0,0,0,0,2
3,0.6798,63,0.14372168,-0.97357696,0.22780323,0.17866269,-0.21118091,-0.6341061,-56.09470749,21.10494041,-85.38439178,0.40641108,-0.09225971,-3.37283349,0.99956036,-0.00352137,0.00090914,0.02942622,0.00236504,0.00004403,0.0101438,0,0,0,0,2
1,0.4799,39,-0.11250429,-0.99254853,0.15848339,-0.10848491,-0.4015519,0.0968932,-22.42034531,7.95089149,-82.72434998,0.46530291,-0.03461098,-2.76355147,0.99970102,-0.00405206,0.00039986,0.02411276,0.0011364,0.0003115,0.01139533,0,0,0,0,2
1,0.4899,40,-0.11134997,-0.99355465,0.1564738,-0.13931262,-0.81899476,0.15098862,-22.44957542,7.42472935,-82.8997345,0.46483311,-0.03482429,-2.77198553,0.99969923,-0.00404788,0.00040192,0.02418634,-0.00048456,-0.00135465,0.01195596,0,0,0,0,2
1,0.4999,41,-0.10746053,-0.99372238,0.15570159,-0.21287738,-0.69828111,0.22517331,-22.62496376,6.19701815,-82.57819366,0.46351781,-0.03595082,-2.77943707,0.99969774,-0.00403615,0.00041174,0.02425131,-0.00436955,-0.00212875,0.01157893,0,0,0,0,2
3,0.6898,64,0.14289825,-0.9729085,0.22320592,-0.08758811,0.30817965,-0.64502329,-56.27009583,20.72493362,-85.93978119,0.40618852,-0.08667583,-3.36828923,0.99956167,-0.00352089,0.00086023,0.02938676,0.00272445,-0.0036541,0.00837235,0,0,0,0,2
3,0.6998,65,0.14416757,-0.96986872,0.22229353,-0.08913103,0.68971974,-0.69148976,-55.3054657,19.96492195,-85.85208893,0.40648255,-0.08151241,-3.35995579,0.99956375,-0.00352484,0.00081501,0.02931422,0.00109647,-0.00387926,0.0054252,0,0,0,0,2
4,0.6199,62,0.03400604,-0.79506904,-0.59634805,-0.1140122,-0.09255958,0.01057346,-46.71148682,-49.04998398,-50.21923447,0,0,0,1,0,0,0,0,0,0,0,0,0,0,2
4,0.6299,63,0.0327082,-0.79523373,-0.59769338,-0.25641263,-0.02336231,-0.02000383,-46.53609848,-49.079216,-50.16077042,0,0,0,1,0,0,0,0,0,0,0,0,0,0,2
4,0.6399,64,0.0324565,-0.79690713,-0.59997272,-0.29288739,0.11587861,-0.10392558,-46.85764313,-48.84536743,-49.45922089,0,0,0,1,0,0,0,0,0,0,0,0,0,0,2
4,0.6499,65,0.03418011,-0.79616594,-0.60063231,-0.15347388,0.42629632,-0.08380154,-46.06840134,-49.31306458,-50.51154709,0,0,0,1,0,0,0,0,0,0,0,0,0,0,2
4,0.6599,66,0.03874378,-0.79781616,-0.59997886,-0.33255652,0.61224395,0.13283479,-46.59456253,-48.61151505,-50.86231995,0,0,0,1,0,0,0,0,0,0,0,0,0,0,2
4,0.6699,67,0.04399025,-0.80185926,-0.59801424,-0.48172823,0.17664622,0.41777372,-46.59456253,-48.61151505,-50.86231995,0,0,0,1,0,0,0,0,0,0,0,0,0,0,2
1,0.5099,42,-0.10509009,-0.99235958,0.15494387,-0.50185192,-0.5279395,0.2855162,-22.36188316,8.21397209,-82.66588593,0.45915812,-0.0379292,-2.78561664,0.99969649,-0.00399767,0.00042829,0.02430516,-0.00659161,-0.00261501,0.00986631,0,0,0,0,2
1,0.5199,43,-0.10399582,-0.99069649,0.15448754,-0.21678282,-0.4551816,0.37251785,-22.36188316,8.21397209,-82.66588593,0.4575741,-0.04089575,-2.79090858,0.99969542,-0.0039832,0.00045402,0.02435124,-0.00753898,-0.00276444,0.00804356,0,0,0,0,2
1,0.5299,44,-0.10575855,-0.99192494,0.15458308,-0.14514109,-0.47175083,0.40596262,-22.18649483,8.00935364,-82.69511414,0.43013164,0.02432955,-2.79527664,0.99969542,-0.00375766,-0.0001207,0.02439159,-0.00567927,-0.00272546,0.00945769,0,0,0,0,2
1,0.5399,45,-0.10648759,-0.99235994,0.15845382,-0.28810409,-0.45596975,0.32113492,-22.274189,7.42472935,-82.84127045,0.42780942,0.02187243,-2.8005712,0.99969435,-0.00373688,-0.00009958,0.0244377,-0.00421548,0.00142785,0.0105353,0,0,0,0,2
4,0.6799,68,0.04466899,-0.80174124,-0.59770703,-0.56267917,-0.23361941,0.25156641,-45.68839645,-49.13768005,-50.24846649,0,0,0,1,0,0,0,0,0,0,0,0,0,0,2
3,0.7098,66,0.14458336,-0.96550292,0.22162396,-0.01950247,0.36166412,-0.8177411,-55.3054657,19.96492195,-85.85208893,0.40704483,-0.07437369,-3.35460043,0.99956512,-0.00353161,0.00075272,0.02926772,0.00015073,-0.00357594,0.00112681,0,0,0,0,2
3,0.7198,67,0.14576849,-0.96592098,0.22567579,0.10363229,0.01610731,-0.90922648,-55.27623367,19.99415398,-85.55977631,0.40839171,-0.0655544,-3.35254741,0.99956566,-0.00354562,0.00067607,0.02925009,-0.00068577,0.00026793,0.00258605,0,0,0,0,2
3,0.7298,68,0.14297588,-0.96775776,0.22689292,0.01728974,-0.33122602,-0.82790458,-55.86085892,20.25723457,-85.85208893,0.41782305,-0.1053698,-3.3565135,0.99956411,-0.00361769,0.00102591,0.02928335,0.00232197,0.00099171,0.00421683,0,0,0,0,2
1,0.5499,46,-0.11122872,-0.99561185,0.15850669,0.1067531,-0.52084899,0.2984589,-22.74188805,6.89856768,-82.8997345,0.42948553,0.01973925,-2.80602741,0.99969316,-0.00375105,-0.00008044,0.02448523,0.00010217,0.00098673,0.0142604,0,0,0,0,2
1,0.5599,47,-0.11402361,-0.9914028,0.15594599,0.02065133,-0.81730527,0.35741714,-22.24495697,8.3601284,-82.13972473,0.43063447,0.01748972,-2.81457996,0.99969137,-0.0037606,-0.00006029,0.02455977,0.00334141,-0.00094432,0.01005197,0,0,0,0,2
3,0.7398,69,0.1471384,-0.96712691,0.22984886,-0.03302536,-0.4366492,-0.65587622,-55.80239487,20.25723457,-85.64746857,0.41706884,-0.09799727,-3.35920143,0.99956346,-0.00361297,0.00096149,0.02930704,-0.00228725,0.00390773,0.00486105,0,0,0,0,2
3,0.7498,70,0.14914615,-0.96542799,0.22972259,0.25060976,-0.02145271,-0.50923669,-55.51008606,18.88336754,-85.67670441,0.41969284,-0.09298143,-3.35862112,0.99956363,-0.00363715,0.00091839,0.02930212,-0.00441716,0.00414462,0.00348678,0,0,0,0,2
3,0.7598,71,0.15018702,-0.96658242,0.23020536,0.78632814,0.43755963,-0.12739502,-55.51008606,18.88336754,-85.67670441,0.4281292,-0.09272457,-3.3552804,0.99956417,-0.00371083,0.0009182,0.02927291,-0.00522942,0.00423454,0.00485879,0,0,0,0,2
3,0.7698,72,0.14669158,-0.96877301,0.2264021,0.23990478,0.68202043,-0.05439888,-55.48085403,20.52031517,-85.61824036,0.43148124,-0.09374348,-3.3489325,0.99956572,-0.00373986,0.00092774,0.02921749,-0.00159719,-0.00005405,0.00563471,0,0,0,0,2
4,0.6899,69,0.04435618,-0.79655594,-0.59837103,-0.89849514,-0.35177749,0.0472261,-45.98070526,-49.22537231,-49.72230148,0,0,0,1,0,0,0,0,0,0,0,0,0,0,2
4,0.6999,70,0.03862684,-0.79274887,-0.59655714,-0.63273394,-0.29750514,-0.07963721,-46.47763824,-49.079216,-50.48231506,0,0,0,1,0,0,0,0,0,0,0,0,0,0,2
4,0.7099,71,0.03467995,-0.78940034,-0.59669971,-0.22616534,-0.12414174,-0.085203,-46.47763824,-49.079216,-50.48231506,0,0,0,1,0,0,0,0,0,0,0,0,0,0,2
4,0.7199,72,0.03183781,-0.7851764,-0.59841573,-0.03176728,-0.0377566,-0.07035085,-46.56533051,-48.69921112,-50.21923447,0,0,0,1,0,0,0,0,0,0,0,0,0,0,2
4,0.7299,73,0.02955083,-0.78526556,-0.60085905,0.16293189,-0.00475669,0.0482173,-46.09763336,-48.72844315,-50.3946228,0,0,0,1,0,0,0,0,0,0,0,0,0,0,2
4,0.7399,74,0.0300483,-0.78680605,-0.5995369,0.35618287,0.21874118,0.11794646,-45.95147705,-49.02075195,-49.86845779,0,0,0,1,0,0,0,0,0,0,0,0,0,0,2
3,0.7798,73,0.14108782,-0.96902972,0.22677666,0.16869104,0.49187788,-0.12711771,-56.12393951,19.96492195,-85.76439667,0.47887743,-0.16175723,-3.34981632,0.99956322,-0.00413593,0.00153313,0.02922231,0.00369379,0.00002147,0.00514906,0,0,0,0,2
1,0.5999,48,-0.11110629,-0.99085599,0.15633127,0.01628676,0.39634311,0.29120663,-23.32651329,6.69394922,-82.51972961,0.43341234,0.03579691,-2.81746173,0.99969053,-0.00378876,-0.00021931,0.02458551,0.00082248,-0.00054377,0.00925138,0,0,0,0,2
3,0.7898,74,0.13665184,-0.96900409,0.2287218,-0.02650922,0.12867984,-0.25517049,-55.71470261,19.81876564,-85.29669952,0.47888803,-0.15956478,-3.34796214,0.99956369,-0.00413661,0.00151394,0.02920622,0.00727164,0.00130932,0.00490771,0,0,0,0,2
4,0.7499,75,0.03491831,-0.79026812,-0.59994394,0.28581047,0.1693361,-0.03849027,-46.56533051,-48.87459564,-50.10231018,0,0,0,1,0,0,0,0,0,0,0,0,0,0,2
4,0.7599,76,0.03922992,-0.79134315,-0.60123515,0.039168,-0.01841759,-0.19366789,-46.56533051,-48.87459564,-50.10231018,0,0,0,1,0,0,0,0,0,0,0,0,0,0,2
4,0.7699,77,0.04020165,-0.78956681,-0.60627383,0.00317702,0.03157173,-0.08728483,-46.21455765,-48.69921112,-50.74539566,0,0,0,1,0,0,0,0,0,0,0,0,0,0,2
1,0.6099,49,-0.10934392,-0.99090153,0.15549012,0.10500436,0.46689761,0.27582672,-23.00496864,7.83396673,-82.08126068,0.43399608,0.03233498,-2.81320143,0.99969149,-0.00379311,-0.00018912,0.02454823,-0.00098364,-0.00138488,0.00897785,0,0,0,0,2
1,0.6199,50,-0.11122827,-0.99236864,0.15521793,0.23048173,0.43356609,0.32554582,-23.00496864,7.83396673,-82.08126068,0.43586338,0.02844231,-2.80918813,0.99969232,-0.00380856,-0.00015489,0.0245131,0.00067009,-0.0018947,0.01058696,0,0,0,0,2
1,0.6299,51,-0.11207964,-0.99572116,0.15771294,0.15909332,0.41535667,0.3254185,-22.82958221,7.57088566,-82.98742676,0.435592,0.0257299,-2.80553603,0.9996931,-0.0038056,-0.00013141,0.02448114,0.00105069,0.00004977,0.01434507,0,0,0,0,2
4,0.7799,78,0.03952897,-0.79038441,-0.60445523,0.19814014,0.2461675,0.00023953,-46.06840134,-48.37766647,-50.51154709,0,0,0,1,0,0,0,0,0,0,0,0,0,0,2
1,0.6399,52,-0.11171533,-0.9973833,0.15817617,-0.03978471,0.58683914,0.28133005,-22.77112007,7.65857935,-83.19204712,0.43460014,0.02203512,-2.80025864,0.99969423,-0.00379616,-0.00009956,0.02443498,0.00044745,0.00029015,0.01600689,0,0,0,0,2
1,0.6499,53,-0.11207968,-0.9945609,0.15439472,0.08578963,0.55352348,0.31375068,-22.36188316,7.19087982,-82.98742676,0.43490651,0.01807185,-2.79521132,0.99969536,-0.00379798,-0.00006509,0.02439082,0.00111344,-0.00302862,0.01271323,0,0,0,0,2
1,0.6599,54,-0.11177483,-0.99008352,0.15415637,0.00020984,0.29197368,0.2010038,-22.88804436,7.98012257,-82.4905014,0.43461999,0.01562531,-2.79265809,0.9996959,-0.00379496,-0.00004389,0.02436846,0.00124577,-0.0026004,0.00824386,0,0,0,0,2
1,0.6699,55,-0.10952542,-0.9871605,0.15529968,-0.1048754,0.11700189,0.17807622,-22.88804436,7.98012257,-82.4905014,0.4334704,0.01368243,-2.79188323,0.99969608,-0.00378452,-0.00002721,0.02436164,-0.00072614,-0.00101096,0.00529277,0,0,0,0,2
3,0.7998,75,0.13988017,-0.96797013,0.22871453,-0.09711051,-0.23483971,-0.31308946,-55.62701035,19.20491028,-85.44285583,0.47770673,-0.15597801,-3.34937024,0.9995634,-0.0041272,0.0014824,0.02921864,0.00398882,0.00154815,0.00437908,0,0,0,0,2
3,0.8098,76,0.14174122,-0.97050005,0.22387207,-0.28885663,0.07483271,-0.08339488,-55.51008606,20.60800934,-85.12130737,0.47498614,-0.15533945,-3.3480413,0.99956387,-0.00410365,0.00147609,0.02920711,0.00238501,-0.00369609,0.00603643,0,0,0,0,2
3,0.8198,77,0.14660668,-0.97252125,0.22192749,-0.30354905,0.40188256,0.18218155,-55.51008606,20.60800934,-85.12130737,0.47249451,-0.1580306,-3.34413695,0.99956501,-0.00408128,0.00149879,0.02917299,-0.00222911,-0.00599049,0.00827274,0,0,0,0,2
1,0.6799,56,-0.10940438,-0.99115533,0.15954843,0.11066099,0.01053925,0.29753837,-22.71265602,7.68781042,-83.22128296,0.47810525,0.03440487,-2.78785038,0.9996953,-0.00417831,-0.00019865,0.02432722,-0.00128993,0.00239459,0.00983629,0,0,0,0,2
4,0.7899,79,0.03829902,-0.79161412,-0.60367954,0.12620269,0.36615089,0.0388747,-46.27301788,-49.57614517,-50.62847137,0,0,0,1,0,0,0,0,0,0,0,0,0,0,2
4,0.7999,80,0.03497189,-0.79295838,-0.60351741,0.3026554,0.46863317,0.12420427,-45.98070526,-48.58228683,-50.07307816,0,0,0,1,0,0,0,0,0,0,0,0,0,0,2
4,0.8099,81,0.03638422,-0.79280823,-0.60546613,0.39309442,0.24440585,0.13561688,-45.98070526,-48.58228683,-50.07307816,0,0,0,1,0,0,0,0,0,0,0,0,0,0,2
4,0.8199,82,0.03502803,-0.7939617,-0.60578758,0.39293969,0.26137233,0.15337957,-46.30224991,-48.81613541,-51.06694031,0,0,0,1,0,0,0,0,0,0,0,0,0,0,2
4,0.8299,83,0.034102,-0.79170793,-0.60588074,0.28696802,0.20995238,0.11981737,-46.24378967,-49.079216,-50.920784,0,0,0,1,0,0,0,0,0,0,0,0,0,0,2
4,0.8399,84,0.03416295,-0.78976125,-0.60573304,0.07350398,0.29650566,0.07363373,-46.1560936,-49.51768494,-49.95615387,0,0,0,1,0,0,0,0,0,0,0,0,0,0,2
3,0.8298,78,0.14728358,-0.97482574,0.22241184,0.13986078,0.54005533,0.34284166,-56.09470749,20.2864666,-85.03361511,0.4059855,-0.11043593,-3.33239865,0.99957061,-0.00351336,0.00106634,0.02907295,-0.00239833,-0.0057302,0.01069832,0,0,0,0,2
3,0.8398,79,0.15080146,-0.97375882,0.22010469,0.37220553,0.50431716,0.53465736,-55.68547058,19.29260445,-85.44285583,0.41020516,-0.11678699,-3.32927895,0.9995712,-0.00354859,0.00112271,0.0290455,-0.00551885,-0.006909,0.0096714,0,0,0,0,2
3,0.8498,80,0.15381573,-0.97128105,0.22493735,-0.08423533,0.83068091,0.78070903,-55.74393463,19.96492195,-85.5305481,0.41028669,-0.1262746,-3.32290673,0.99957275,-0.00354696,0.00120529,0.02898961,-0.00883903,-0.00168963,0.00877387,0,0,0,0,2
3,0.8598,81,0.14960086,-0.96583945,0.22463939,-0.06559734,0.83016151,0.85032886,-56.21163177,19.70184135,-85.47208405,0.41053468,-0.13643357,-3.31673598,0.99957418,-0.00354662,0.00129378,0.02893546,-0.00563223,-0.00076494,0.00284287,0,0,0,0,2
3,0.8698,82,0.14864467,-0.96702725,0.22724396,0.25502712,0.34471914,0.96632105,-56.21163177,19.70184135,-85.47208405,0.4132401,-0.14662801,-3.31596041,0.99957418,-0.00356766,0.00138336,0.02892834,-0.00461089,0.00146844,0.00441791,0,0,0,0,2
3,0.8798,83,0.14952558,-0.96642166,0.23159826,0.062466,0.11845525,1.0489378,-56.15317154,20.02338409,-85.23823547,0.46689269,-0.07155184,-3.31695676,0.99957269,-0.00405462,0.00074206,0.02893907,-0.00523432,0.0055894,0.00491256,0,0,0,0,2
1,0.6899,57,-0.10873596,-0.99177498,0.15996723,0.26949194,0.05692761,0.60494721,-22.77112007,5.96316862,-82.43203735,0.48082814,0.02834426,-2.78793693,0.9996953,-0.00420078,-0.0001452,0.02432775,-0.00180172,0.00211261,0.01043874,0,0,0,0,2
3,0.8998,84,0.15430245,-0.96910751,0.22529784,0.77180088,0.81024468,1.37560248,-55.51008606,20.22800255,-85.12130737,0.47449395,-0.09898713,-3.3133359,0.99957323,-0.00411402,0.00098317,0.02890644,-0.00910733,-0.0018907,0.00683276,0,0,0,0,2
5,0.2001,11,0.28864548,-0.93037188,-0.18750262,-0.22739115,0.48932782,0.30428606,-44.78222656,12.24788094,-116.369484,-0.48152497,-0.14813122,-2.17476058,0.99981016,0.00422586,0.0012127,0.01898247,0.00396652,0.0020071,-0.00800296,0,0,0,0,2
5,0.2101,12,0.28676355,-0.93194664,-0.19099014,-0.40143734,0.15872861,0.22851728,-44.78222656,12.24788094,-116.369484,-0.48477295,-0.15004537,-2.17164016,0.99981058,0.00425448,0.00122898,0.01895535,0.00638932,-0.00106726,-0.00645009,0,0,0,0,2
5,0.2201,13,0.28808504,-0.93152738,-0.19262634,-0.5657081,0.53728133,0.36231402,-45.19146347,15.46331501,-116.5740967,-0.53807247,-0.2058429,-2.16480088,0.99980879,0.00472864,0.00170728,0.01889852,0.00481962,-0.00248892,-0.00614859,0,0,0,0,2
1,0.7199,58,-0.10843303,-0.99434179,0.15605202,0.39546159,0.07590783,0.44900408,-22.71265602,7.33703566,-83.25051117,0.49318054,0.00972913,-2.78280544,0.9996959,-0.00430459,0.00001963,0.02428231,-0.0026586,-0.0023501,0.01235038,0,0,0,0,2
1,0.7299,59,-0.10916175,-0.99189621,0.15632571,0.42967278,0.2153447,0.41926914,-22.71265602,7.33703566,-83.25051117,0.49241653,0.02784858,-2.78122115,0.99969625,-0.00430176,-0.00013867,0.02426916,-0.00165315,-0.00176436,0.01006761,0,0,0,0,2
1,0.7399,60,-0.10733793,-0.98932308,0.15643136,0.32475165,0.05781019,0.32778752,-22.80035019,7.27857351,-82.51972961,0.49563003,0.02451459,-2.7808013,0.99969625,-0.00432909,-0.00010892,0.02426538,-0.00295802,-0.00127692,0.00735397,0,0,0,0,2
4,0.8499,85,0.03434177,-0.785236,-0.60707623,0.1081389,0.39976692,0.0922251,-46.06840134,-48.55305481,-49.89768982,0,0,0,1,0,0,0,0,0,0,0,0,0,0,2
1,0.7499,61,-0.10581873,-0.98909754,0.15407714,0.16876705,-0.34365845,0.31422564,-22.71265602,7.80473518,-82.46126556,0.49773067,0.02194988,-2.78449798,0.9996953,-0.00434688,-0.00008596,0.02429753,-0.00445611,-0.00361603,0.00661715,0,0,0,0,2
1,0.7599,62,-0.10508953,-0.99067885,0.15696844,0.06643194,-0.7096895,0.23236519,-22.74188805,7.60011673,-82.84127045,0.4992038,0.02077444,-2.79174519,0.99969375,-0.00435948,-0.00007511,0.02436071,-0.00542836,-0.00101997,0.00851941,0,0,0,0,2
1,0.7699,63,-0.10581917,-0.99266046,0.15814956,-0.02508762,-0.50214231,0.11959378,-22.80035019,7.74627304,-82.75357819,0.49952409,0.02038585,-2.79688811,0.99969262,-0.0043622,-0.00007146,0.02440557,-0.00494974,-0.00016142,0.01072227,0,0,0,0,2
1,0.7799,64,-0.11013468,-0.9948613,0.15767366,-0.0161439,-0.24336192,-0.11368696,-22.80035019,7.74627304,-82.75357819,0.50553083,0.017854,-2.79858947,0.99969208,-0.00441406,-0.00004803,0.02442032,-0.00089811,-0.00099031,0.0132894,0,0,0,0,2
3,0.9098,85,0.159077,-0.97347713,0.21827257,2.55633926,1.55712175,1.56919861,-56.35778809,20.08184814,-85.99824524,0.50148308,-0.11778568,-3.30562091,0.99957401,-0.00434478,0.00115366,0.02883819,-0.01373799,-0.01003536,0.01021852,0,0,0,0,2
3,0.9198,86,0.15544622,-0.97359842,0.22215244,4.18170309,2.52877474,1.78276622,-56.21163177,20.37415886,-85.70593262,0.54583853,-0.14087743,-3.29141641,0.99957567,-0.00472605,0.00136566,0.02871287,-0.01038186,-0.00696805,0.0106583,0,0,0,0,2
3,0.9298,87,0.15486869,-0.97065228,0.22765759,5.06676102,2.94454002,2.00185204,-56.21163177,20.37415886,-85.70593262,0.55410516,-0.051203,-3.27337623,0.99958032,-0.00482072,0.00058475,0.02855921,-0.00998034,-0.00161773,0.0089371,0,0,0,0,2
3,0.9398,88,0.15025645,-0.96852046,0.22179618,6.88477945,4.55767775,2.20853806,-55.65623856,19.81876564,-85.44285583,0.62795103,-0.08309047,-3.24458241,0.99958402,-0.00545715,0.00087994,0.02830613,-0.00490492,-0.00742026,0.00493342,0,0,0,0,2
3,0.9498,89,0.1388046,-0.97379732,0.22139964,8.45960236,6.21997833,2.71032,-55.80239487,20.08184814,-85.17977142,0.71954918,-0.12371498,-3.20327997,0.9995892,-0.00624658,0.00125468,0.0279429,0.00650902,-0.01047041,0.00828615,0,0,0,0,2
3,0.9598,90,0.13331701,-0.97965014,0.21966028,6.93900061,5.77558899,3.75680542,-55.53931427,20.19877243,-85.44285583,0.79511935,-0.17357504,-3.16651106,0.99959338,-0.00689416,0.00170582,0.02761829,0.01190821,-0.0149303,0.01277497,0,0,0,0,2
3,0.9698,91,0.12481966,-0.96951711,0.19933984,6.27002573,4.74225044,4.98983622,-56.06547546,19.02952385,-85.64746857,0.86221379,-0.23305166,-3.14162636,0.99959427,-0.00746557,0.00223919,0.02739629,0.01723866,-0.03368289,-0.00265177,0,0,0,0,2
1,0.7899,65,-0.11402456,-0.99582177,0.15636848,-0.07995988,0.11885462,-0.3772136,-22.85881233,6.89856768,-83.0166626,0.50453949,0.02139748,-2.79692459,0.9996925,-0.00440617,-0.00007922,0.02440593,0.00288518,-0.00248764,0.01446855,0,0,0,0,2
1,0.7999,66,-0.11912937,-0.99446481,0.15563606,0.11416347,0.34702355,-0.38760415,-23.26804924,7.80473518,-82.3735733,0.50523704,0.02467297,-2.79277658,0.99969333,-0.00441295,-0.0001078,0.02436987,0.00817897,-0.0030143,0.01358748,0,0,0,0,2
4,0.8599,86,0.03582085,-0.78177315,-0.60641921,0.33905613,0.36691579,0.01686779,-46.06840134,-48.55305481,-49.89768982,0,0,0,1,0,0,0,0,0,0,0,0,0,0,2
4,0.8699,87,0.03723105,-0.77972966,-0.60877001,0.39271101,0.31586242,-0.02011599,-46.65302658,-49.02075195,-50.33615875,0,0,0,1,0,0,0,0,0,0,0,0,0,0,2
4,0.8799,88,0.03784375,-0.77800995,-0.60978377,0.59668022,0.30307761,-0.17468612,-46.62379456,-48.75767136,-50.89155197,0,0,0,1,0,0,0,0,0,0,0,0,0,0,2
4,0.8899,89,0.03617625,-0.77847934,-0.61113352,0.85817879,0.49403644,-0.18608478,-46.09763336,-48.72844315,-50.13153839,0,0,0,1,0,0,0,0,0,0,0,0,0,0,2
4,0.8999,90,0.03307753,-0.77499241,-0.61676353,0.9657616,0.35744429,-0.2606878,-46.09763336,-48.72844315,-50.13153839,0,0,0,1,0,0,0,0,0,0,0,0,0,0,2
4,0.9099,91,0.03189884,-0.77161378,-0.61891609,1.2813729,0.80510575,-0.17204335,-46.38994217,-48.90382767,-50.13153839,0,0,0,1,0,0,0,0,0,0,0,0,0,0,2
4,0.9199,92,0.03122055,-0.77228057,-0.61916953,1.47094727,1.43635106,0.28910089,-46.06840134,-49.75153351,-50.19000244,0,0,0,1,0,0,0,0,0,0,0,0,0,0,2
4,0.9299,93,0.02979746,-0.77553165,-0.6218977,0.85088003,1.31036031,0.54441053,-46.18532562,-48.6699791,-50.59923935,0,0,0,1,0,0,0,0,0,0,0,0,0,0,2
4,0.9399,94,0.02983698,-0.78063786,-0.63123697,0.03320891,1.51291299,0.72271574,-46.36071396,-48.81613541,-50.19000244,0,0,0,1,0,0,0,0,0,0,0,0,0,0,2
1,0.9499,67,-0.11506817,-1.04003048,0.15094809,1.51564717,3.68676805,-5.60345316,-22.91727448,7.22011089,-82.16895294,0.71988648,-0.17855114,-2.57772398,0.9997263,-0.00624551,0.00169903,0.02248272,-0.00457397,-0.01812805,0.05727685,0,0,0,0,2
1,0.9599,68,-0.12089077,-0.98200542,0.13664502,0.75217116,4.87739086,-6.24586678,-22.36188316,7.74627304,-82.08126068,0.72088408,-0.12478541,-2.51902318,0.99973816,-0.0062654,0.00122695,0.02197355,0.00863362,-0.02369381,-0.00123238,0,0,0,0,2
3,0.9798,92,0.13372467,-0.97374952,0.20882446,8.08531284,4.27054977,5.91292381,-56.06547546,19.02952385,-85.64746857,0.68691462,-0.28994247,-3.13943982,0.99960405,-0.00592284,0.00269343,0.02737761,0.00826039,-0.02559787,0.004808,0,0,0,0,2
1,0.9699,69,-0.11177546,-0.98772055,0.14151815,0.16600442,6.4528451,-7.44633389,-22.18649483,7.16164875,-81.90587616,0.71417856,-0.06170524,-2.4436059,0.99975324,-0.00621944,0.00067124,0.02131909,-0.00008258,-0.01967122,0.00410133,0,0,0,0,2
1,0.9799,70,-0.12812094,-0.97190481,0.13335861,-1.33611727,5.49816322,-8.81927204,-21.92341423,7.10318613,-82.05203247,0.20320249,-0.12021118,-2.26177979,0.99980319,-0.00175222,0.00108383,0.01973456,0.01869172,-0.02303462,-0.01087428,0,0,0,0,2
1,0.9899,71,-0.11482401,-1.02724791,0.13106164,-0.43861157,5.49159193,-9.20688343,-21.92341423,7.10318613,-82.05203247,0.19129026,-0.03756415,-2.19436455,0.99981529,-0.00166274,0.00035971,0.01914769,-0.00086978,-0.0267758,0.04166545,0,0,0,0,2
4,0.9499,95,0.03481676,-0.78348261,-0.63657695,-0.37742949,1.83792961,0.84216726,-46.36071396,-48.81613541,-50.19000244,0,0,0,1,0,0,0,0,0,0,0,0,0,0,2
1,0.9999,72,-0.11785477,-0.99349731,0.13516282,-0.42529148,5.96112108,-9.44921589,-22.04033852,8.00935364,-81.93510437,0.17904733,0.04676579,-2.12198329,0.99982727,-0.00156977,-0.00037911,0.01851735,0.00720237,-0.01751227,0.00943233,0,0,0,0,2
1,1.0099,73,-0.11718465,-0.99291688,0.15124114,-1.08140361,5.72809267,-10.05823803,-22.44957542,7.57088566,-81.84741211,0.16053802,0.13748431,-2.05171323,0.99983805,-0.00142221,-0.0011745,0.01790527,0.00786827,-0.00125578,0.01116891,0,0,0,0,2
1,1.0199,74,-0.12076995,-0.99555594,0.16197902,-1.41506028,5.55109024,-10.82333279,-22.21572685,7.68781042,-82.11049652,0.13889015,0.23606551,-1.98242509,0.99984753,-0.0012475,-0.00203878,0.0173015,0.01266669,0.00932013,0.0157497,0,0,0,0,2
1,1.0299,75,-0.1181543,-0.98782617,0.16864879,-1.65712142,7.58109045,-10.55665874,-22.36188316,7.83396673,-81.43817139,0.31606567,0.19537705,-1.99415553,0.99984336,-0.00278744,-0.00165672,0.01740602,0.01186258,0.01664317,0.00885893,0,0,0,0,2
3,0.9898,93,0.14917977,-0.98634636,0.2116462,7.38422537,4.25621843,7.54346466,-54.66238022,18.64951706,-85.44285583,0.76352322,-0.37307134,-3.12663341,0.99960089,-0.00657161,0.00343615,0.0272592,-0.00634274,-0.0236642,0.01981178,0,0,0,0,2
3,0.9998,94,0.15484114,-0.99379188,0.19978085,5.38539124,2.71162868,9.5621376,-55.94855118,19.78953552,-84.91668701,0.81761974,-0.47227198,-3.13052416,0.99959373,-0.00701972,0.00431459,0.02728525,-0.01290197,-0.03794441,0.02526262,0,0,0,0,2
3,1.0098,95,0.16753085,-0.99321669,0.22056907,4.60610962,2.80525136,10.67237949,-56.03624725,20.5495472,-85.20899963,0.86378032,-0.58250207,-3.13504624,0.99958557,-0.00739586,0.00528741,0.02731559,-0.02672412,-0.0183961,0.031117,0,0,0,0,2
3,1.0198,96,0.1673933,-0.97335237,0.2318697,3.51174283,1.2355994,11.70412636,-56.2408638,19.70184135,-85.38439178,0.89675516,-0.69908601,-3.15555406,0.99957299,-0.0076545,0.0063136,0.02748483,-0.03105182,-0.00365056,0.01442083,0,0,0,0,2
3,1.0298,97,0.1686807,-0.9636572,0.23518789,3.52118468,0.46892887,12.24903011,-55.80239487,20.25723457,-85.67670441,0.95821726,-0.42474654,-3.112921,0.99959016,-0.00825811,0.00393223,0.02712989,-0.03395321,0.0010262,0.00599412,0,0,0,0,2
1,1.0399,76,-0.12198213,-0.98347491,0.1684498,-0.20813286,8.93567562,-10.18923187,-22.36188316,7.83396673,-81.43817139,0.30305022,0.28227502,-1.89100409,0.99985725,-0.00268489,-0.00241933,0.01650777,0.01594857,0.01475291,0.00498133,0,0,0,0,2
1,1.0499,77,-0.11705799,-0.98381275,0.18465646,0.40053713,7.44824028,-10.00630093,-22.50803757,7.92166042,-82.72434998,0.29780728,0.36966226,-1.80208433,0.99986768,-0.00264925,-0.00318463,0.01573375,0.01227115,0.03085358,0.00717817,0,0,0,0,2
4,0.9599,96,0.03999628,-0.78701222,-0.6364966,-1.0728966,2.32024097,0.79611254,-46.50687027,-49.25460434,-50.42385101,0,0,0,1,0,0,0,0,0,0,0,0,0,0,2
4,0.9699,97,0.04325824,-0.78953552,-0.63878387,-2.13971472,2.66403151,0.73805392,-45.92224503,-49.40076065,-50.13153839,0,0,0,1,0,0,0,0,0,0,0,0,0,0,2
4,0.9799,98,0.04135153,-0.78967905,-0.6373235,-3.66416311,2.59653044,0.45546868,-46.1560936,-49.63460922,-50.77462769,0,0,0,1,0,0,0,0,0,0,0,0,0,0,2
4,0.9899,99,0.03907037,-0.78403032,-0.63639718,-4.88681269,2.51468801,0.0265437,-46.33148193,-49.10844803,-50.71616364,0,0,0,1,0,0,0,0,0,0,0,0,0,0,2
4,0.9999,100,0.04270481,-0.77818805,-0.6359508,-4.55550432,3.20185399,0.24137147,-46.33148193,-49.10844803,-50.71616364,0,0,0,1,0,0,0,0,0,0,0,0,0,0,2
4,1.0099,101,0.04592256,-0.7760058,-0.63073403,-3.28033042,3.40866017,0.40970725,-46.56533051,-49.13768005,-49.95615387,0,0,0,1,0,0,0,0,0,0,0,0,0,0,2
3,1.0398,98,0.17320675,-0.96055847,0.24764088,3.27656031,0.15553236,12.38225079,-55.80239487,20.25723457,-85.67670441,0.98715454,-0.54534519,-3.14523244,0.99957609,-0.0084805,0.00499346,0.02740157,-0.03541264,0.01294427,0.00635832,0,0,0,0,2
3,1.0498,99,0.16681914,-0.95377856,0.25085571,2.21417761,-0.03521375,12.14828205,-56.27009583,19.67260933,-85.29669952,1.00543165,-0.66322953,-3.17732596,0.99956179,-0.00860996,0.00602853,0.02767154,-0.03204142,0.01717442,-0.00038846,0,0,0,0,2
1,1.0699,78,-0.08995242,-0.9783991,0.17388687,0.15079394,4.63048935,-10.19438744,-22.44957542,7.10318613,-82.46126556,0.28843319,0.55366021,-1.66468275,0.99987954,-0.00258694,-0.00479449,0.01453853,-0.01074336,0.02117537,-0.00269334,0,0,0,0,2
4,1.0199,102,0.04236539,-0.77148604,-0.62317473,-2.97859621,3.41266704,0.19390568,-46.50687027,-48.81613541,-50.62847137,0,0,0,1,0,0,0,0,0,0,0,0,0,0,2
4,1.0299,103,0.04107533,-0.76306915,-0.61983198,-3.41842723,3.02169609,-0.22257724,-46.36071396,-48.90382767,-50.95001221,0,0,0,1,0,0,0,0,0,0,0,0,0,0,2
4,1.0399,104,0.04520082,-0.75897682,-0.62050623,-3.92922807,2.57220578,-0.21981539,-46.36071396,-48.90382767,-50.95001221,0,0,0,1,0,0,0,0,0,0,0,0,0,0,2
4,1.0499,105,0.04458109,-0.75938469,-0.62185419,-3.59034109,2.25404954,0.30803278,-46.24378967,-49.04998398,-50.97924423,0,0,0,1,0,0,0,0,0,0,0,0,0,0,2
5,0.2301,14,0.28915304,-0.92928624,-0.19185652,-0.70461237,0.1945989,0.07549682,-45.30838776,15.52177715,-116.5156403,-0.54421425,-0.2061777,-2.16073394,0.99980915,0.00478222,0.00170935,0.01886314,0.00238962,-0.0014076,-0.00806304,0,0,0,0,2
5,0.2401,15,0.29358152,-0.92720711,-0.18800294,-0.52376175,-0.03257727,0.17293632,-45.13300323,15.40485191,-116.9541092,-0.54920954,-0.20791517,-2.15915966,0.99980927,0.00482606,0.00172376,0.01884955,-0.00268936,0.00206449,-0.0093968,0,0,0,0,2
5,0.5501,16,0.29433879,-0.92886794,-0.18688415,-0.20806311,0.3699517,0.13634099,-44.78222656,14.96638393,-116.8371811,-0.5029071,-0.21686617,-2.22992754,0.99979913,0.00442466,0.00180674,0.01946664,-0.00315382,0.00270062,-0.00782562,0,0,0,0,2
5,0.5601,17,0.28932896,-0.92707491,-0.18780406,-0.15356641,0.29830682,0.23909612,-44.63607025,15.81408882,-116.9248734,-0.50337398,-0.21860085,-2.22622299,0.99979973,0.00442897,0.00182194,0.01943439,0.00113753,0.00146773,-0.0108275,0,0,0,0,2
1,1.0799,79,-0.08977085,-0.98272914,0.17625163,0.65076494,3.43756151,-10.44957256,-21.98187637,7.33703566,-83.0166626,0.50218827,0.69221503,-1.68072641,0.99986422,-0.00447045,-0.0059757,0.01469263,-0.00957216,0.02195764,0.0019175,0,0,0,0,2
1,1.0899,80,-0.09445056,-0.98118025,0.17152235,-0.34083408,1.16707778,-10.49084473,-21.98187637,7.33703566,-83.0166626,0.49617559,0.79398638,-1.65320814,0.99986219,-0.00442934,-0.00686553,0.01445597,-0.00238698,0.01477607,0.00025559,0,0,0,0,2
1,1.0999,81,-0.09055983,-0.97520202,0.16968516,-0.70609593,0.11983915,-10.04218483,-22.39111328,8.12627888,-82.78281403,0.4876149,0.89296985,-1.63709331,0.99985814,-0.00436599,-0.0077309,0.01431844,-0.00381891,0.01399754,-0.00629626,0,0,0,0,2
5,0.5701,18,0.2895402,-0.92699969,-0.19320968,-0.29524127,0.26098016,0.2925882,-44.46068192,15.43408298,-116.2525559,-0.54369634,-0.2467856,-2.22221208,0.9997983,0.00478548,0.00206118,0.01940119,0.00107062,-0.00365906,-0.00984725,0,0,0,0,2
5,0.5801,19,0.29013926,-0.93048465,-0.1921265,-0.22529085,0.29506451,0.31496552,-44.46068192,15.43408298,-116.2525559,-0.54481554,-0.24927653,-2.21816373,0.99979883,0.0047956,0.00208289,0.01936599,0.00107217,-0.0014064,-0.00659408,0,0,0,0,2
5,0.5901,20,0.29083291,-0.9309274,-0.188675,-0.18828724,0.08767265,0.22684993,-44.63607025,15.49254608,-116.7494888,-0.54624444,-0.25132191,-2.21635818,0.99979901,0.00480838,0.00210057,0.01935035,0.00030781,0.00209105,-0.0066019,0,0,0,0,2
4,1.0599,106,0.03940128,-0.76599389,-0.62414211,-2.82848763,2.26282382,0.93746471,-46.41917419,-49.37152863,-50.36539078,0,0,0,1,0,0,0,0,0,0,0,0,0,0,2
4,1.0699,107,0.03749711,-0.77197981,-0.62294173,-2.38843131,2.67656112,1.00536752,-46.68225479,-49.40076065,-50.59923935,0,0,0,1,0,0,0,0,0,0,0,0,0,0,2
4,1.0799,108,0.03917027,-0.7761547,-0.62043321,-1.16203225,2.35176063,0.9730978,-46.50687027,-49.04998398,-51.8561821,0,0,0,1,0,0,0,0,0,0,0,0,0,0,2
4,1.0899,109,0.03358184,-0.78440166,-0.61450803,-0.94651121,2.02601957,0.87527317,-46.50687027,-49.04998398,-51.8561821,0,0,0,1,0,0,0,0,0,0,0,0,0,0,2
4,1.0999,110,0.03147836,-0.78836942,-0.61828327,-2.20686698,2.27723074,0.10424886,-46.71148682,-48.99152374,-51.24232483,0,0,0,1,0,0,0,0,0,0,0,0,0,0,2
4,1.1099,111,0.03430321,-0.78436637,-0.62133896,-3.53935075,2.66483951,-0.57548797,-46.36071396,-49.13768005,-50.62847137,0,0,0,1,0,0,0,0,0,0,0,0,0,0,2
3,1.0598,100,0.16225143,-0.94479698,0.24402118,1.73015547,-1.93538141,11.31790638,-56.47471619,19.43876076,-85.12130737,1.01676488,-0.76854491,-3.22505283,0.99954385,-0.00868039,0.00695352,0.02807894,-0.03095395,0.01227059,-0.01118486,0,0,0,0,2
3,1.0698,101,0.16978842,-0.94590741,0.25931495,2.06689835,-2.46182036,10.0599947,-56.18240356,20.19877243,-84.97515106,1.03118324,-0.86036879,-3.27539635,0.99952489,-0.00878015,0.00776186,0.02850983,-0.03944429,0.02669478,-0.00565378,0,0,0,0,2
3,1.0798,102,0.16019447,-0.94858134,0.25473776,0.25667205,-1.95837152,9.50247765,-56.00701523,20.16954041,-85.03361511,1.15572214,-0.67986822,-3.24483967,0.99953234,-0.00991321,0.00621579,0.02825102,-0.03009312,0.02101005,-0.00545186,0,0,0,0,2
1,1.1099,82,-0.09384271,-0.98235375,0.17563145,-1.72341442,-0.20493895,-9.89071274,-21.71879578,8.06781673,-82.95819855,0.46928665,0.99099046,-1.62553942,0.99985319,-0.00421739,-0.00858888,0.01421979,0.00028509,0.01903986,0.001999,0,0,0,0,2
1,1.1199,83,-0.09518167,-0.98491687,0.16079515,-3.03867984,0.57929766,-10.19789982,-21.77725792,7.65857935,-81.78894806,0.43711728,1.09083414,-1.6072973,0.9998486,-0.00394752,-0.00946467,0.01406142,0.00329468,0.0044863,0.00249534,0,0,0,0,2
1,1.1299,84,-0.09092956,-0.98898143,0.14796475,-2.87678409,0.75540763,-10.72890568,-21.86495209,8.00935364,-81.87664032,0.23460983,1.22676599,-1.53975701,0.99985009,-0.00219089,-0.01067685,0.01345762,0.0007683,-0.00751905,0.00415292,0,0,0,0,2
1,1.1399,85,-0.07482651,-0.98912257,0.12487803,-3.9516921,1.28246343,-11.80848885,-21.86495209,8.00935364,-81.87664032,0.19258493,1.34152436,-1.5135833,0.99984258,-0.00183498,-0.0116835,0.01322687,-0.01254155,-0.02747149,-0.00086141,0,0,0,0,2
4,1.1199,112,0.03583406,-0.78103399,-0.62440461,-4.54812622,2.44471574,-0.95918256,-46.27301788,-49.079216,-50.21923447,0,0,0,1,0,0,0,0,0,0,0,0,0,0,2
3,1.0898,103,0.14986424,-0.95322627,0.23969588,1.01249194,-2.23178864,9.20650768,-56.00701523,20.16954041,-85.03361511,1.16017127,-0.76386565,-3.28963089,0.99951655,-0.00992851,0.00695344,0.02863393,-0.0176753,0.00367029,-0.00575228,0,0,0,0,2
3,1.0998,104,0.14629889,-0.95565856,0.25301629,1.72008657,-2.55990028,9.23978996,-56.47471619,21.01724625,-85.06284332,1.17126179,-0.84737676,-3.33868408,0.99949825,-0.01000098,0.00768891,0.02905351,-0.01482656,0.01593567,-0.00099929,0,0,0,0,2
3,1.1098,105,0.14492561,-0.95106822,0.2490828,1.20362854,-1.1049583,9.17209244,-56.53317642,20.60800934,-85.44285583,1.17916727,-0.93373138,-3.37287068,0.99948323,-0.0100454,0.00844711,0.02934324,-0.0157389,0.01297001,-0.00646132,0,0,0,0,2
3,1.1198,106,0.12939504,-0.94754672,0.24203238,1.28696442,0.88786954,9.15008259,-56.47471619,20.40339088,-85.12130737,1.1904794,-1.02465153,-3.38800097,0.99947184,-0.01011943,0.00924435,0.02946594,-0.00264985,0.00667946,-0.01363235,0,0,0,0,2
3,1.1298,107,0.11739984,-0.95013142,0.25228414,-0.02125171,1.87247801,9.21062088,-56.94241333,21.13417053,-84.53668213,1.35973406,-1.25156581,-3.33540606,0.99945027,-0.01154207,0.01126166,0.02896947,0.00770681,0.01529589,-0.01059504,0,0,0,0,2
5,0.6001,21,0.2939249,-0.92914844,-0.18555193,-0.38372505,0.08467976,0.28184474,-44.63607025,16.0479393,-116.8956451,-0.54953158,-0.253914,-2.21387267,0.99979919,0.00483745,0.00212273,0.01932883,-0.0033859,0.00486023,-0.00791882,0,0,0,0,2
5,0.6101,22,0.29236397,-0.93061864,-0.18575813,-0.29361442,-0.018538,0.26071131,-44.89915085,15.75562668,-116.5448685,-0.55224395,-0.25649115,-2.21268654,0.99979931,0.00486152,0.00214481,0.01931864,-0.00149757,0.00499408,-0.00696662,0,0,0,0,2
5,0.6201,23,0.29354176,-0.92746651,-0.1849099,-0.38220632,-0.02183195,0.36691719,-44.57761002,15.14177132,-116.0479355,-0.52423173,-0.21547152,-2.21252632,0.99980122,0.00461021,0.00179165,0.01931509,-0.00345307,0.00513665,-0.00972674,0,0,0,0,2
5,0.6301,24,0.29163608,-0.92739224,-0.18872914,-0.21887659,-0.29846045,0.34071836,-44.57761002,15.14177132,-116.0479355,-0.5269953,-0.21940368,-2.21400976,0.9998008,0.00463501,0.00182543,0.01932823,-0.0009203,0.00101972,-0.00967201,0,0,0,0,2
1,1.1499,86,-0.07306606,-0.99678677,0.12168574,-3.59086895,3.33876324,-13.74230576,-21.71879578,6.60625553,-82.11049652,0.15224707,1.47230232,-1.46398234,0.99983478,-0.00149252,-0.01282987,0.01279131,-0.01289344,-0.03102107,0.0060546,0,0,0,0,2
1,1.1599,87,-0.07416044,-0.99766129,0.11906111,-3.58678079,3.89656305,-15.72845459,-21.07570839,7.8631978,-82.75357819,0.11133751,1.62189627,-1.4059788,0.99982393,-0.00114508,-0.01414024,0.01228168,-0.00937882,-0.03306106,0.00670888,0,0,0,0,2
1,1.1699,88,-0.06638091,-0.99581772,0.11906326,-3.53252387,4.76779127,-17.78996277,-22.18649483,7.42472935,-82.05203247,0.07019884,1.79060578,-1.33636296,0.99980962,-0.0007947,-0.01561713,0.01166984,-0.014088,-0.03204479,0.00412176,0,0,0,0,2
1,1.1799,89,-0.06097158,-0.99890298,0.13117109,-3.18146253,7.88450527,-20.37669373,-21.57263947,7.80473518,-82.69511414,-0.17249963,2.16100621,-1.17000723,0.99976921,0.00131246,-0.01887157,0.01017985,-0.01605756,-0.01898419,0.00848077,0,0,0,0,2
1,1.1899,90,-0.05732496,-0.99650067,0.12703882,-5.20403004,11.85983181,-23.08687019,-21.57263947,7.80473518,-82.69511414,-0.23518433,2.37213969,-1.02563655,0.99974406,0.00186658,-0.02071683,0.00890583,-0.01342848,-0.01911541,0.00533002,0,0,0,0,2
4,1.1299,113,0.04074164,-0.77671939,-0.63221222,-6.72867823,2.31983662,-0.96698183,-46.65302658,-49.16690826,-51.24232483,0,0,0,1,0,0,0,0,0,0,0,0,0,0,2
4,1.1399,114,0.04065329,-0.77166128,-0.64117378,-8.62925434,2.64005113,-0.72837198,-46.65302658,-49.16690826,-51.24232483,0,0,0,1,0,0,0,0,0,0,0,0,0,0,2
4,1.1499,115,0.03834776,-0.76612794,-0.64939904,-9.65958405,2.74816823,-0.05863692,-45.45454407,-49.079216,-50.89155197,0,0,0,1,0,0,0,0,0,0,0,0,0,0,2
4,1.1599,116,0.04215902,-0.76479715,-0.65291601,-9.67975712,2.94288611,0.71313238,-46.38994217,-49.10844803,-50.48231506,0,0,0,1,0,0,0,0,0,0,0,0,0,0,2
4,1.1699,117,0.04239964,-0.76591969,-0.65537059,-8.90537548,3.56801844,1.63274336,-46.09763336,-49.25460434,-50.16077042,0,0,0,1,0,0,0,0,0,0,0,0,0,0,2
3,1.1398,108,0.10247574,-0.96229202,0.25056842,-0.70842594,2.5105195,9.42544365,-57.43934631,20.98801422,-84.53668213,1.3532182,-1.34911418,-3.33299398,0.99944216,-0.01146061,0.01211056,0.02893874,0.02072695,0.00880388,-0.00129214,0,0,0,0,2
1,1.1999,91,-0.04517067,-0.98799354,0.09975117,-6.14680719,15.11739254,-25.15696335,-21.28032684,7.77550411,-82.34434509,-0.30910519,2.59923148,-0.84747577,0.99971235,0.00252894,-0.02269987,0.00733244,-0.02028835,-0.0436006,-0.00823949,0,0,0,0,2
1,1.2099,92,-0.04529133,-0.98375422,0.09908304,-6.61780262,16.69538307,-27.74207497,-21.28032684,8.50628471,-81.90587616,-0.38822961,2.84989119,-0.65089315,0.99966943,0.00324558,-0.02488612,0.00559404,-0.01548245,-0.04228009,-0.01229032,0,0,0,0,2
1,1.2199,93,-0.0336209,-0.98582083,0.12342145,-6.8145318,15.07944489,-30.51576614,-21.54340744,7.71704149,-82.11049652,-0.46776748,3.13055968,-0.46685362,0.99961078,0.00396919,-0.02733205,0.003961,-0.02302458,-0.01713323,-0.00769321,0,0,0,0,2
1,1.2299,94,-0.01386681,-0.97956795,0.13469838,-6.3304863,14.37412071,-32.22328186,-21.4849453,8.38935947,-82.28588104,-0.50886697,3.8637197,-0.18709525,0.99942076,0.00438312,-0.03371779,0.00148207,-0.03515099,-0.00386861,-0.01392711,0,0,0,0,2
1,1.2399,95,-0.008335,-0.98296422,0.15771578,-5.87399483,15.44009686,-33.01791382,-20.66647148,8.91552162,-82.46126556,-0.57600379,4.16904688,0.00467528,0.99932569,0.00502472,-0.03637309,-0.00022361,-0.0304349,0.01916911,-0.00707546,0,0,0,0,2
3,1.1498,109,0.09428576,-0.97769326,0.24351689,-1.09268332,2.45547462,9.71830463,-57.43934631,20.98801422,-84.53668213,1.34272695,-1.44939303,-3.33123803,0.99943328,-0.01134374,0.01298234,0.02891397,0.02906889,-0.00130863,0.01087595,0,0,0,0,2
3,1.1598,110,0.08267874,-0.99247813,0.22666973,-1.91505075,2.98599505,10.34809589,-57.5562706,20.22800255,-85.15054321,1.32454431,-1.55709374,-3.32467771,0.99942464,-0.01115849,0.01391643,0.0288476,0.04028516,-0.0207336,0.01981938,0,0,0,0,2
3,1.1698,111,0.07476167,-1.00165963,0.21616423,-3.03983617,4.43425941,10.97274113,-56.47471619,20.432621,-84.85823059,1.29667795,-1.6743865,-3.30403161,0.9994185,-0.01088829,0.01493043,0.02865893,0.04711222,-0.03259034,0.02528,0,0,0,0,2
3,1.1798,112,0.08545798,-0.99693525,0.21275079,-3.91706014,5.84819937,11.61545277,-56.88395309,20.5495472,-85.26746368,0.85685962,-2.07899165,-3.36206102,0.99938124,-0.00694082,0.01835263,0.02919406,0.03238215,-0.03252898,0.02159673,0,0,0,0,2
5,0.7301,25,0.29536027,-0.92875409,-0.18858616,0.04365004,-0.39059243,0.21359327,-44.63607025,14.55714703,-116.8956451,-0.56987488,-0.16531615,-2.24781346,0.99979413,0.00500041,0.00134481,0.01962152,-0.0031509,0.00218047,-0.0073103,0,0,0,0,2
5,0.7401,26,0.29019287,-0.92907572,-0.19009414,0.11561374,-0.44384047,0.28151241,-44.84069061,13.65097904,-116.3987122,-0.56989676,-0.16896537,-2.25177145,0.99979335,0.00500127,0.00137648,0.01965621,0.00190441,0.00076913,-0.00827004,0,0,0,0,2
5,0.7501,27,0.28700024,-0.92695642,-0.19113508,0.14913404,-0.30136919,0.16179889,-45.33761978,15.63870239,-116.4571762,-0.56925327,-0.17116408,-2.25472331,0.99979281,0.00499607,0.00139564,0.01968205,0.00434446,-0.00066756,-0.0110155,0,0,0,0,2
4,1.1799,118,0.03445868,-0.76858836,-0.65218014,-7.89864588,4.00815392,2.28224277,-46.09763336,-49.25460434,-50.16077042,0,0,0,1,0,0,0,0,0,0,0,0,0,0,2
4,1.1899,119,0.02817386,-0.7758894,-0.65295315,-7.70689678,4.38269234,2.6165061,-45.893013,-49.54691696,-51.35925293,0,0,0,1,0,0,0,0,0,0,0,0,0,0,2
4,1.1999,120,0.02700317,-0.78038538,-0.65374547,-9.04375553,5.22535706,2.60825586,-46.06840134,-48.75767136,-51.3300209,0,0,0,1,0,0,0,0,0,0,0,0,0,0,2
4,1.2099,121,0.02541892,-0.78455031,-0.64776278,-11.21092224,5.61393166,2.85383892,-45.893013,-49.02075195,-50.95001221,0,0,0,1,0,0,0,0,0,0,0,0,0,0,2
4,1.2199,122,0.02881517,-0.78099859,-0.6446628,-13.16528893,6.00244236,3.12975049,-46.36071396,-49.079216,-50.83308792,0,0,0,1,0,0,0,0,0,0,0,0,0,0,2
4,1.2299,123,0.0397452,-0.77259803,-0.6352089,-14.28275585,5.97932005,3.36272168,-46.36071396,-49.079216,-50.83308792,0,0,0,1,0,0,0,0,0,0,0,0,0,0,2
3,1.1898,113,0.09329016,-0.98352212,0.20201555,-3.88783455,7.07022047,12.64212608,-57.67319489,20.63723946,-85.58900452,0.82272154,-2.21854663,-3.31770945,0.99937189,-0.00661478,0.01955844,0.02880332,0.01639781,-0.0341344,0.00755287,0,0,0,0,2
1,1.2499,96,-0.01246759,-0.98963636,0.17488141,-5.17338562,15.23972034,-32.9786911,-20.66647148,8.91552162,-82.46126556,-0.63507247,4.47447634,0.19492365,0.99922061,0.00560419,-0.03902716,-0.00191605,-0.02201111,0.03622275,0.00287985,0,0,0,0,2
1,1.2599,97,-0.01982132,-0.98745853,0.16911769,-5.2890439,12.66587925,-32.08633804,-20.57877731,8.24320412,-83.16281891,-0.69354224,4.77479124,0.35814339,0.99910808,0.00617716,-0.04163598,-0.00337473,-0.00911203,0.03185157,0.0011207,0,0,0,0,2
1,1.2699,98,-0.01927324,-0.98210877,0.16804403,-6.67070913,9.86911774,-31.6250267,-20.69570351,7.92166042,-82.28588104,-0.76431829,5.07452822,0.49133724,0.99898696,0.00685309,-0.04423916,-0.00457868,-0.00384581,0.03271484,-0.00390389,0,0,0,0,2
4,1.2399,124,0.0488865,-0.76953524,-0.627352,-15.43383694,5.63663292,4.16641426,-46.27301788,-49.63460922,-51.44694519,0,0,0,1,0,0,0,0,0,0,0,0,0,0,2
4,1.2499,125,0.0517931,-0.76411939,-0.62258089,-17.23060799,6.11046076,5.60961914,-46.41917419,-49.69307327,-51.56386948,0,0,0,1,0,0,0,0,0,0,0,0,0,0,2
4,1.2599,126,0.04271831,-0.75239205,-0.6255458,-19.25300598,6.07946014,6.22832203,-46.71148682,-48.58228683,-51.79771805,0,0,0,1,0,0,0,0,0,0,0,0,0,0,2
4,1.2699,127,0.03745519,-0.74200779,-0.63242894,-20.81115723,5.76827049,6.08160591,-46.76995087,-48.64074707,-51.73925781,0,0,0,1,0,0,0,0,0,0,0,0,0,0,2
3,1.1998,114,0.10046537,-0.96931386,0.21203482,-3.328969,7.56659365,13.53883648,-57.67319489,20.63723946,-85.58900452,0.79434109,-2.3679502,-3.27139401,0.99935919,-0.00633778,0.02085169,0.02839446,0.00505091,-0.02070683,-0.00283584,0,0,0,0,2
3,1.2098,115,0.10985098,-0.96805245,0.23095354,-4.05920076,6.86659002,14.23762798,-57.38088226,20.22800255,-85.35515594,0.75773233,-2.52249551,-3.23229337,0.99934232,-0.00598741,0.02218835,0.02805039,-0.00646986,-0.00140607,0.00154199,0,0,0,0,2
3,1.2198,116,0.09986039,-0.97156537,0.22147673,-5.32864189,5.38226223,15.39149666,-57.46857452,20.75416565,-85.23823547,0.70663476,-2.68481231,-3.20816445,0.99931884,-0.00550662,0.0235902,0.02784023,0.00083819,-0.01063578,0.00152222,0,0,0,0,2
1,1.2799,99,-0.00851567,-0.97490901,0.15607066,-8.20712185,6.51439857,-31.04465485,-20.90032196,6.89856768,-82.78281403,-0.65753913,5.52337122,0.67259091,0.99880338,0.00601411,-0.04814657,-0.00613898,-0.00771014,0.0224986,-0.01339995,0,0,0,0,2
1,1.2899,100,0.00673635,-0.97853106,0.13935746,-9.03995991,2.69863772,-30.36546516,-20.90032196,9.32475853,-82.63665771,-0.74956226,5.82033348,0.73077238,0.99866664,0.00685631,-0.05072637,-0.00670087,-0.01586295,0.00448126,-0.01331848,0,0,0,0,2
1,1.2999,101,0.02684818,-0.98755282,0.11264742,-12.35880184,-1.19799244,-29.99905396,-20.90032196,9.32475853,-82.63665771,-0.87447703,6.11899042,0.74567842,0.9985218,0.00796744,-0.05332061,-0.00690505,-0.03122347,-0.02133909,-0.01005871,0,0,0,0,2
1,1.3099,102,0.03249885,-0.98843616,0.1001718,-12.59281731,-3.65027809,-30.62359238,-20.14031029,8.30166626,-83.25051117,-1.00173676,6.42712688,0.73618525,0.9983657,0.00908789,-0.05599847,-0.00690407,-0.03146036,-0.03159397,-0.01105491,0,0,0,0,2
4,1.2799,128,0.04001704,-0.73263621,-0.6405381,-21.9277935,5.75785208,5.51211309,-46.76995087,-48.64074707,-51.73925781,0,0,0,1,0,0,0,0,0,0,0,0,0,0,2
3,1.2298,117,0.09663065,-0.98970401,0.19892743,-5.30731583,4.19360399,16.71245956,-57.67319489,21.42648315,-85.41362,0.24737976,-2.81822658,-3.21280408,0.99930394,-0.00146792,0.02464196,0.02797171,0.00311862,-0.03390555,0.01374642,0,0,0,0,2
3,1.2398,118,0.10164594,-0.99124187,0.20133868,-4.62352562,5.22586775,17.79161263,-57.5562706,20.31569672,-85.58900452,0.20246212,-3.00335741,-3.19510221,0.99926782,-0.00103492,0.02624524,0.027823,-0.00417318,-0.02576191,0.01657136,0,0,0,0,2
5,0.7601,28,0.28646511,-0.9280436,-0.19164081,0.38139078,-0.40248609,0.1038539,-43.96375275,12.42326832,-116.3402481,-0.56671345,-0.17299527,-2.25942111,0.99979222,0.00497428,0.00141185,0.01972309,0.00517078,-0.00098537,-0.01006356,0,0,0,0,2
5,0.7701,29,0.29027352,-0.92712533,-0.19272862,0.29190758,-0.36721787,0.05325536,-44.3145256,15.08330917,-116.6033325,-0.56538182,-0.17423652,-2.263659,0.9997915,0.00496293,0.00142273,0.0197601,0.00130009,-0.00226632,-0.009594,0,0,0,0,2
5,0.7801,30,0.28972748,-0.92730594,-0.19303413,0.32893586,-0.4887321,0.04988765,-44.60683823,15.08330917,-116.778717,-0.5636214,-0.17571664,-2.26910949,0.99979055,0.00494789,0.00143571,0.01980769,0.00186792,-0.00255765,-0.0095316,0,0,0,0,2
5,0.7901,31,0.28424945,-0.9272573,-0.19489823,0.15434833,0.10764875,0.01484204,-44.60683823,15.9894762,-116.778717,-0.5618282,-0.17564987,-2.26854181,0.99979079,0.00493223,0.00143546,0.01980272,0.00717758,-0.00442055,-0.01086606,0,0,0,0,2
4,1.2899,129,0.03863427,-0.72241747,-0.64845681,-21.77936554,4.96888256,5.25022316,-46.65302658,-49.02075195,-52.23618698,0,0,0,1,0,0,0,0,0,0,0,0,0,0,2
4,1.2999,130,0.04405998,-0.71677631,-0.64660841,-19.82289505,4.32255983,4.91721058,-46.76995087,-48.49459076,-53.0546608,0,0,0,1,0,0,0,0,0,0,0,0,0,0,2
4,1.3099,131,0.04523878,-0.70874023,-0.64204836,-18.49061584,4.08642721,4.74468994,-46.94533539,-48.46535873,-52.70388794,0,0,0,1,0,0,0,0,0,0,0,0,0,0,2
4,1.3199,132,0.05011095,-0.70474494,-0.64010018,-18.11444092,3.60283041,4.83247709,-46.94533539,-48.46535873,-52.70388794,0,0,0,1,0,0,0,0,0,0,0,0,0,0,2
4,1.3299,133,0.0565061,-0.70703059,-0.6461634,-16.12147713,2.68220592,5.48829556,-47.0914917,-48.37766647,-51.68079376,0,0,0,1,0,0,0,0,0,0,0,0,0,0,2
3,1.2498,119,0.09017844,-0.97695577,0.21218219,-5.97400236,6.22162533,18.6170311,-57.96550751,20.57877731,-85.44285583,0.14472969,-3.19874668,-3.16746235,0.99922884,-0.00049064,0.02793491,0.02759177,0.00213926,-0.01112997,0.00364893,0,0,0,0,2
1,1.3199,103,0.0351121,-0.99533552,0.11657782,-12.9995327,-5.06173849,-31.53726006,-20.40339088,8.6816721,-82.63665771,-1.13330853,6.7461338,0.71272534,0.99819583,0.01023842,-0.05877168,-0.00679046,-0.02961557,-0.01416585,-0.00147371,0,0,0,0,2
1,1.3299,104,0.02071142,-0.99027413,0.13513432,-13.16179466,-7.42611361,-32.38399506,-20.14031029,8.94475269,-82.69511414,-1.20866156,7.17336273,0.69346422,0.99796355,0.01090507,-0.06249017,-0.0066992,-0.00897996,0.00697718,-0.00135211,0,0,0,0,2
1,1.3499,105,0.05128149,-0.99062282,0.14236726,-12.5956831,-9.53910732,-32.77726364,-19.4972229,9.47091484,-82.60742188,-1.46351862,7.84707117,0.5493204,0.99755925,0.01306916,-0.06835764,-0.00565594,-0.02662739,0.01771496,-0.00155391,0,0,0,0,2
3,1.2598,120,0.08260369,-0.9646371,0.22144607,-7.34462023,7.2360549,19.26878357,-57.96550751,20.57877731,-85.44285583,0.07399122,-3.40270185,-3.12922859,0.99918687,0.00016549,0.02969635,0.02727306,0.00467714,0.00177387,-0.00713062,0,0,0,0,2
3,1.2698,121,0.06761667,-0.95755589,0.22370997,-7.5413146,8.7251339,19.34221268,-57.93627548,20.81262779,-85.50131226,0.0023321,-3.61062455,-3.0762074,0.9991436,0.00082527,0.03149262,0.02682778,0.01496423,0.00681672,-0.01544294,0,0,0,0,2
3,1.2798,122,0.05677243,-0.95813364,0.2333529,-7.0994606,12.50784874,18.74019051,-58.46243668,21.2218647,-85.32592773,0.23367296,-4.10882378,-3.08841634,0.99899423,-0.00107107,0.03589038,0.02685779,0.02118507,0.01595463,-0.01404575,0,0,0,0,2
1,1.3599,106,0.04781709,-0.97912008,0.11128928,-11.96243477,-8.55846786,-32.97092819,-19.17568016,8.24320412,-83.0166626,-1.58660877,8.18442917,0.4912906,0.99734145,0.01411582,-0.07129519,-0.00526398,-0.01560439,-0.00912899,-0.0162158,0,0,0,0,2
1,1.3699,107,0.04149782,-0.96971035,0.10193439,-10.20959568,-9.1971035,-34.39154053,-19.11721611,8.18474102,-83.22128296,-1.6926595,8.53660297,0.42981923,0.99710661,0.01500876,-0.0743631,-0.00483939,-0.00217618,-0.01504852,-0.02523628,0,0,0,0,2
1,1.3799,108,0.01347938,-0.96943879,0.08507223,-8.40265656,-9.60871506,-36.39237213,-19.08798599,9.67553329,-83.33820343,-2.27119708,8.41599274,0.13623925,0.99710596,0.01985241,-0.0733394,-0.00263971,0.03013807,-0.02797876,-0.02417188,0,0,0,0,2
1,1.3899,109,-0.00621322,-0.97455448,0.07890459,-8.60849667,-10.99981785,-38.05064392,-17.68488693,9.90938282,-83.65974426,-2.36270189,8.80583858,0.05826928,0.99683607,0.02059518,-0.07674303,-0.00208965,0.04950427,-0.02693563,-0.01757426,0,0,0,0,2
1,1.3999,110,0.01986207,-0.98020297,0.12672403,-7.82204437,-10.6948595,-38.49516678,-17.68488693,9.90938282,-83.65974426,-2.44672656,9.19970131,-0.0159654,0.99655217,0.02127015,-0.08018099,-0.00157335,0.02898466,0.02096511,-0.0066905,0,0,0,0,2
1,1.4099,111,0.04593167,-0.99720758,0.14024805,-7.32252264,-5.25086403,-37.69356918,-18.18181801,9.61707115,-83.71820831,-2.52330136,9.57973671,-0.03660851,0.9962666,0.02191461,-0.08348836,-0.00152028,0.00765155,0.03311563,0.01029798,0,0,0,0,2
3,1.2898,123,0.04221744,-0.96186793,0.2433081,-8.24358368,15.81847095,18.2973156,-57.90704346,20.92955208,-85.44285583,0.1596029,-4.32257128,-2.96400237,0.99895477,-0.00041598,0.03773594,0.02579197,0.02897857,0.02220554,-0.00987235,0,0,0,0,2
3,1.2998,124,0.02697962,-0.96653175,0.24189013,-8.4168911,17.86805534,17.61430931,-58.02396774,20.66647148,-86.17362976,0.08478856,-4.53405809,-2.81768942,0.99891579,0.00023345,0.03956299,0.02453798,0.04096259,0.0210952,-0.00762536,0,0,0,0,2
5,0.8001,32,0.28415361,-0.92834055,-0.19291474,0.18818301,0.23188154,-0.07025798,-45.24992752,16.16486359,-117.1002655,-0.55939794,-0.17450294,-2.26706171,0.99979115,0.00491081,0.00142594,0.01978972,0.0074848,-0.0023114,-0.01024125,0,0,0,0,2
1,1.4199,112,0.04404288,-1.00803947,0.11456061,-7.51094341,1.01962185,-37.40994644,-18.18181801,8.82782841,-83.6889801,-2.59816384,9.95034027,0.00462239,0.99597627,0.02258939,-0.08670079,-0.00200632,0.01519695,0.00735044,0.01849542,0,0,0,0,2
3,1.3098,125,0.02397868,-0.97761124,0.24644229,-9.8879776,18.05864334,17.26236916,-58.02396774,20.66647148,-86.17362976,-0.00512576,-4.74233007,-2.66626382,0.99887335,0.00100724,0.04136057,0.02324736,0.04201869,0.02454143,0.00390864,0,0,0,0,2
5,0.8101,33,0.28748736,-0.92799067,-0.19334403,0.22275154,0.31880328,-0.05110007,-44.28529739,14.41099072,-116.778717,-0.55637473,-0.17336662,-2.26484442,0.99979162,0.00488421,0.00141664,0.01977029,0.00424545,-0.00284422,-0.00950043,0,0,0,0,2
3,1.3198,126,0.02458496,-0.98247862,0.23561388,-10.68434143,18.83673477,17.2701416,-58.17012405,21.80648994,-85.61824036,-0.10313123,-4.95212984,-2.50576639,0.99882627,0.00184355,0.04317201,0.02188364,0.0381254,0.01459001,0.00663866,0,0,0,0,2
4,1.3399,134,0.05624302,-0.70688361,-0.65232277,-14.96268749,1.82836175,6.18069935,-46.62379456,-48.55305481,-52.32388306,0,0,0,1,0,0,0,0,0,0,0,0,0,0,2
4,1.3499,135,0.04666229,-0.70614022,-0.66238689,-16.4972496,0.77550149,6.0373826,-46.09763336,-48.28997421,-53.17158508,0,0,0,1,0,0,0,0,0,0,0,0,0,0,2
3,1.3298,127,0.03435744,-0.97893143,0.22119093,-9.90850353,20.32693863,17.43519783,-59.07629395,21.04647827,-85.91055298,-0.21973146,-5.3413496,-2.36269426,0.99869788,0.00287567,0.04654569,0.02068383,0.02304069,0.00303171,0.00189358,0,0,0,0,2
3,1.3398,128,0.04556838,-0.96659553,0.21432206,-10.59682274,22.19414711,17.77266502,-58.63782501,21.36802101,-86.31978607,-0.31702131,-5.5627079,-2.16987085,0.9986366,0.00368156,0.0484635,0.0190464,0.00389265,0.00101031,-0.00930129,0,0,0,0,2
3,1.4098,129,0.0043567,-0.97829252,0.1723012,-17.04917526,24.04631996,25.14019203,-59.4270668,20.98801422,-86.84594727,-1.52136528,-7.50584507,-0.58685344,0.9977501,0.01358256,0.06537954,0.00597876,0.01174073,-0.02222047,-0.00912433,0,0,0,0,2
3,1.4198,130,0.00211124,-0.96664608,0.2041238,-20.78479385,19.38737679,26.20001793,-59.4270668,20.98801422,-86.84594727,-1.73044646,-7.79946136,-0.41663775,0.9975605,0.0153126,0.0679476,0.00465399,0.00825159,0.01471463,-0.01299406,0,0,0,0,2
1,1.4299,113,0.03097361,-1.00474632,0.07592429,-9.23797607,3.31099868,-37.93543243,-18.0356617,10.26015759,-84.12744904,-3.044945,9.81062317,-0.14703354,0.99598783,0.02636201,-0.08551297,-0.00099394,0.03334184,-0.02747242,0.01184719,0,0,0,0,2
1,1.4399,114,0.03140002,-0.99790269,0.06996017,-13.16214657,1.44207251,-39.56575775,-17.53873062,9.93861389,-83.92282867,-3.17728972,10.20230961,-0.10937316,0.9956584,0.02752887,-0.08890648,-0.0015147,0.03375078,-0.02575393,0.00452134,0,0,0,0,2
1,1.4499,115,0.04720336,-0.98843378,0.06871359,-13.83795547,1.74825621,-41.07162857,-17.53873062,9.93861389,-83.92282867,-3.31613231,10.60875225,-0.06890962,0.9953022,0.02875518,-0.0924252,-0.00207639,0.02599367,-0.02324273,-0.00532612,0,0,0,0,2
1,1.4599,116,0.07309303,-0.99247128,0.07647854,-10.28653812,4.34455109,-41.66054916,-17.5095005,9.85092068,-84.39052582,-3.41670275,11.01901531,0.00139749,0.9949379,0.02967538,-0.09596787,-0.0028744,0.00672274,-0.01421877,-0.0016161,0,0,0,0,2
1,1.4699,117,0.07078438,-1.0020963,0.10858657,-6.38722801,9.18652725,-42.3080101,-17.62642479,10.05553913,-84.27360535,-3.47298074,11.43174744,0.12508436,0.99456728,0.03026081,-0.09951669,-0.00410366,0.01448701,0.017211,0.01429705,0,0,0,0,2
1,1.4799,118,0.06531333,-1.00682557,0.10546234,-7.02331448,13.1591053,-43.21247864,-17.07103157,10.52323914,-83.71820831,-3.18467212,11.40691376,0.00185246,0.99466538,0.02765197,-0.09934093,-0.00277764,0.02469891,0.01280153,0.02011104,0,0,0,0,2
1,1.4899,119,0.06434216,-1.00706506,0.119278,-10.88384342,10.9066782,-42.55669785,-16.83718109,10.52323914,-84.01052094,-3.28392339,11.81976032,0.1398406,0.99427235,0.02862699,-0.10288688,-0.00416365,0.02683538,0.02338336,0.02261117,0,0,0,0,2
4,1.3599,136,0.03917624,-0.70678723,-0.67307752,-18.73461914,1.17523742,5.56924582,-46.76995087,-50.45308304,-53.37620544,0,0,0,1,0,0,0,0,0,0,0,0,0,0,2
5,0.9101,34,0.29297012,-0.92805886,-0.19069062,0.34012851,0.36602366,-0.00327205,-44.46068192,15.28792763,-116.6325607,-0.56306398,-0.20715541,-2.25037789,0.99979329,0.00494818,0.00171091,0.0196456,-0.00170332,-0.00010685,-0.00828721,0,0,0,0,2
5,0.9201,35,0.28938738,-0.92758203,-0.1893937,0.2906571,0.03569882,-0.0455679,-45.16223145,15.46331501,-116.5740967,-0.55418175,-0.26472303,-2.24982357,0.9997927,0.00488054,0.00221473,0.01964303,0.00125896,0.00099281,-0.01003559,0,0,0,0,2
5,0.9301,36,0.28796622,-0.92981577,-0.18815757,0.27329367,-0.01500462,-0.11665975,-44.84069061,16.01870728,-116.9541092,-0.55166805,-0.26361549,-2.25100613,0.99979264,0.00485844,0.00220544,0.01965326,0.00245411,0.00250647,-0.00858804,0,0,0,0,2
5,0.9401,37,0.29149798,-0.92993104,-0.18689583,0.25472668,0.0383014,-0.16773109,-44.84069061,16.01870728,-116.9541092,-0.54922742,-0.26190972,-2.25171971,0.9997927,0.00483686,0.00219095,0.01965937,-0.00092841,0.00372302,-0.00766066,0,0,0,0,2
4,1.3699,137,0.04359407,-0.70103312,-0.67934161,-19.01222229,2.71833897,5.02755117,-46.76995087,-50.45308304,-53.37620544,0,0,0,1,0,0,0,0,0,0,0,0,0,0,2
4,1.3799,138,0.04417527,-0.69084889,-0.66731179,-18.85590363,3.22868609,4.40533018,-46.94533539,-48.55305481,-52.82081223,0,0,0,1,0,0,0,0,0,0,0,0,0,0,2
4,1.3899,139,0.05863328,-0.6823411,-0.65230215,-18.50328445,3.56456876,3.93275309,-46.56533051,-48.52382278,-53.75621033,0,0,0,1,0,0,0,0,0,0,0,0,0,0,2
4,1.3999,140,0.07269556,-0.67126912,-0.64647013,-19.10658455,1.45251465,3.26150775,-46.88687515,-48.26074219,-53.93159866,0,0,0,1,0,0,0,0,0,0,0,0,0,0,2
4,1.4099,141,0.07583936,-0.66671515,-0.64537019,-20.67340088,-0.07316042,3.56393886,-46.71148682,-48.43613052,-54.04852295,0,0,0,1,0,0,0,0,0,0,0,0,0,0,2
3,1.4298,131,0.00125128,-0.96245247,0.18548644,-23.37382698,13.82155418,28.27751923,-59.36860657,21.36802101,-87.48903656,-2.11264324,-8.20500565,-0.28287706,0.99726194,0.01856452,0.07148324,0.00378069,0.00230497,0.00199528,-0.02031058,0,0,0,0,2
3,1.4398,132,-0.00838471,-0.96065557,0.13843042,-22.44305038,9.03786564,30.88781738,-59.6901474,21.80648994,-87.9567337,-2.34127212,-8.52392769,-0.21706235,0.99702191,0.02051423,0.07426248,0.00340688,0.00332808,-0.03755708,-0.03251687,0,0,0,0,2
3,1.4498,133,0.01991186,-0.95810777,0.13274422,-17.20392036,7.28337908,32.71225357,-59.19321823,22.42034531,-87.57672882,-2.51748323,-8.85773087,-0.17831728,0.99676961,0.02202193,0.07716849,0.00324744,-0.03086585,-0.03924068,-0.03109751,0,0,0,0,2
3,1.4598,134,0.01947458,-0.95704877,0.17770082,-19.72893715,8.66999054,34.21583939,-59.953228,22.39111328,-87.86904144,-2.71988773,-9.20848942,-0.12368584,0.99648952,0.02374328,0.08022455,0.00298071,-0.03509071,0.00800115,-0.02131328,0,0,0,0,2
4,1.4199,142,0.06446733,-0.65569115,-0.6547516,-20.05708504,-1.70513368,3.22425866,-46.71148682,-48.43613052,-54.04852295,0,0,0,1,0,0,0,0,0,0,0,0,0,0,2
1,1.4999,120,0.08901702,-1.00509453,0.11972541,-12.56053066,8.01810646,-40.36669159,-16.83718109,10.52323914,-83.54282379,-3.40240431,12.21359921,0.24409087,0.99387807,0.02974518,-0.10627201,-0.00527525,0.00938363,0.02598275,0.01958096,0,0,0,0,2
1,1.5099,121,0.11284196,-1.00311673,0.13035473,-13.48740387,8.49265671,-38.99296951,-17.07103157,10.37708282,-83.54282379,-3.52928472,12.59347916,0.35017893,0.99348092,0.03094303,-0.10953166,-0.0064134,-0.00771,0.03879746,0.01813658,0,0,0,0,2
4,1.4299,143,0.05358419,-0.64755934,-0.6663056,-19.93406296,-1.45157456,2.47591615,-47.23764801,-48.17304993,-53.90236664,0,0,0,1,0,0,0,0,0,0,0,0,0,0,2
4,1.4399,144,0.03456168,-0.64809775,-0.68097049,-18.23258591,-1.19549561,1.76351857,-47.32534409,-48.31920624,-54.19467926,0,0,0,1,0,0,0,0,0,0,0,0,0,0,2
4,1.4499,145,0.02335204,-0.65033305,-0.67844832,-13.71866226,0.22634298,-0.33160672,-47.00379944,-48.17304993,-54.92546082,0,0,0,1,0,0,0,0,0,0,0,0,0,0,2
4,1.4599,146,0.03399649,-0.64532989,-0.6612314,-10.56886673,1.51428533,-2.85356927,-47.00379944,-47.58842468,-55.0423851,0,0,0,1,0,0,0,0,0,0,0,0,0,0,2
4,1.4699,147,0.05207783,-0.65101993,-0.65409154,-9.06123352,1.63446081,-3.72133136,-47.00379944,-47.58842468,-55.0423851,0,0,0,1,0,0,0,0,0,0,0,0,0,0,2
1,1.5199,122,0.12329435,-1.00013626,0.11431862,-14.84106255,10.31792068,-37.99885178,-16.83718109,10.20169544,-84.2151413,-3.66737533,12.96201324,0.47162771,0.99307728,0.03225797,-0.11268421,-0.00769907,-0.01116397,0.02558766,0.01324737,0,0,0,0,2
1,1.5299,123,0.12821516,-0.99629837,0.08389927,-13.73353195,6.26470804,-37.96582794,-16.28178787,11.28325081,-84.01052094,-3.80692506,13.37890816,0.56695783,0.99261284,0.03356506,-0.11625898,-0.00878039,-0.00867028,-0.00169277,0.00607425,0,0,0,0,2
3,1.4698,135,-0.00516699,-0.96823055,0.19978321,-26.35420227,7.93971968,35.12913132,-60.68400955,22.71265602,-88.27828217,-2.98992968,-9.56628799,-0.06653692,0.99617684,0.02604663,0.08334115,0.00275385,-0.01453292,0.0312554,-0.00810605,0,0,0,0,2
5,0.9501,38,0.29057714,-0.92961311,-0.18785843,0.09317683,0.17486049,-0.10984139,-45.30838776,15.60947037,-116.8371811,-0.54789025,-0.26048473,-2.25058198,0.99979287,0.00482493,0.00217879,0.01964935,-0.00006232,0.00269118,-0.00805727,0,0,0,0,2
5,0.9601,39,0.29333878,-0.92767024,-0.189044,0.17857794,0.48684648,-0.01586179,-44.6945343,15.20023346,-116.9248734,-0.54479694,-0.25936237,-2.24659348,0.99979377,0.00479768,0.0021697,0.01961445,-0.00317778,0.00111318,-0.00884157,0,0,0,0,2
5,0.9701,40,0.2960349,-0.92599583,-0.19169256,0.1453699,0.27892798,-0.07297312,-44.51914597,14.99561501,-117.7433472,-0.54048139,-0.19662893,-2.24566698,0.99979532,0.00474928,0.00162314,0.01960373,-0.00579813,-0.00186055,-0.00912814,0,0,0,0,2
1,1.5399,124,0.13872372,-1.01339936,0.06691229,-12.4288063,-0.51408345,-38.20739746,-15.84332085,9.03244686,-83.74744415,-3.93325877,13.75915527,0.5795086,0.9921819,0.03467529,-0.11953855,-0.00912836,-0.01371733,-0.01891181,0.02102153,0,0,0,0,2
3,1.4798,136,-0.02785007,-0.97781026,0.17714602,-29.86313248,6.13785362,36.45869064,-60.68400955,22.71265602,-88.27828217,-3.17334557,-9.96173096,-0.08514204,0.99583972,0.02764903,0.08676921,0.00314397,0.00216947,0.0115615,-0.00578529,0,0,0,0,2
3,1.4898,137,-0.01657117,-0.98327971,0.16738561,-29.69206619,2.92021585,38.04563141,-60.83016586,23.00496864,-88.27828217,-3.4770267,-10.33931446,-0.07446842,0.99547189,0.03027323,0.090044,0.00338054,-0.01531064,0.00442859,0.00041472,0,0,0,0,2
3,1.4998,138,0.00845517,-0.980371,0.11856449,-28.83279991,2.83603787,40.11726761,-61.38555908,23.32651329,-88.30751038,-3.77246809,-10.73722553,-0.06712627,0.99507201,0.03282543,0.09349298,0.00366253,-0.04874344,-0.0374667,-0.00783705,0,0,0,0,2
3,1.5098,139,0.0197506,-0.9755224,0.13215214,-26.75217247,-0.63886487,41.8312645,-61.53171539,23.29728127,-89.15522003,-4.04556942,-11.14691544,-0.0980977,0.99464911,0.03521312,0.09703119,0.00427958,-0.06713588,-0.01843509,-0.00626372,0,0,0,0,2
3,1.5198,140,0.0290041,-0.96218783,0.16146949,-26.06361771,-8.66883087,43.00119019,-61.85326004,21.30955887,-89.44753265,-4.30749083,-11.55638695,-0.21008432,0.99420768,0.03757452,0.10053777,0.00560629,-0.08427551,0.01753428,-0.00968206,0,0,0,0,2
4,1.4799,148,0.05141622,-0.66094267,-0.65001386,-7.98747063,0.48827463,-4.18411112,-46.91610718,-47.61765671,-54.13621521,0,0,0,1,0,0,0,0,0,0,0,0,0,0,2
4,1.4899,149,0.04571127,-0.67341465,-0.64243644,-7.82960033,0.67444366,-3.93980861,-45.80532074,-48.31920624,-53.55159378,0,0,0,1,0,0,0,0,0,0,0,0,0,0,2
4,1.4999,150,0.04551537,-0.69272685,-0.65056014,-9.13031101,1.37289596,-3.5501287,-46.68225479,-48.49459076,-53.81467438,0,0,0,1,0,0,0,0,0,0,0,0,0,0,2
4,1.5099,151,0.0435765,-0.71504712,-0.66574025,-7.20516825,2.35519576,-3.25944352,-46.68225479,-48.49459076,-53.81467438,0,0,0,1,0,0,0,0,0,0,0,0,0,0,2
4,1.5199,152,0.04179939,-0.7318002,-0.66535258,-8.57424164,2.82230711,-3.51815343,-47.14995575,-47.85150528,-54.72084045,0,0,0,1,0,0,0,0,0,0,0,0,0,0,2
4,1.5299,153,0.02607522,-0.72618717,-0.66687924,-10.91637516,5.04443312,-2.53734803,-46.47763824,-47.64688492,-54.72084045,0,0,0,1,0,0,0,0,0,0,0,0,0,0,2
4,1.5399,154,0.00419403,-0.71399397,-0.66460389,-12.16701698,6.31355429,-3.32489204,-46.76995087,-47.85150528,-54.42852783,0,0,0,1,0,0,0,0,0,0,0,0,0,0,2
5,0.9801,41,0.29100937,-0.92726159,-0.19182256,0.18527736,-0.07009479,-0.029222,-45.60070038,15.46331501,-117.3633423,-0.53892565,-0.1964874,-2.24692416,0.99979508,0.0047357,0.00162212,0.01961466,0.00018883,-0.00180903,-0.00941599,0,0,0,0,2
5,0.9901,42,0.28802106,-0.9297334,-0.18900657,0.18258688,-0.09786854,-0.0180744,-45.60070038,15.46331501,-117.3633423,-0.53747189,-0.1965038,-2.24841571,0.99979496,0.00472304,0.00162245,0.01962766,0.00360831,0.00140336,-0.00850134,0,0,0,0,2
5,1.7401,43,0.28475091,-0.92507827,-0.15500724,7.93930149,8.8942728,-1.3596139,-43.46682358,14.99561501,-116.4279404,0.42645532,-0.02879585,-1.54242492,0.99990249,-0.0037178,0.00030136,0.01345876,0.00616628,0.01772268,-0.02006194,0,0,0,0,2
5,1.7501,44,0.27914953,-0.93548429,-0.14954543,7.60306549,10.247715,-1.2704953,-43.93452072,15.11254025,-116.3110199,0.52822411,0.00266012,-1.47103786,0.99990702,-0.00460953,0.00003596,0.01283684,0.01478347,0.02329365,-0.01295697,0,0,0,0,2
1,1.5499,125,0.14486158,-1.0085299,0.051307,-12.16194534,-7.14822197,-38.88553238,-15.55100822,9.03244686,-84.0982132,-4.06607389,14.15152264,0.5243119,0.99172914,0.03576845,-0.12294172,-0.00890768,-0.01246157,-0.03148426,0.01501736,0,0,0,0,2
1,1.5599,126,0.15586714,-0.99217981,0.07008244,-5.16473675,-9.3248167,-39.71048737,-15.55100822,11.22478771,-84.0982132,-4.13104773,14.554286,0.45461312,0.99127471,0.03625397,-0.12644371,-0.00849813,-0.01517275,-0.00902639,0.00233526,0,0,0,0,2
1,1.5699,127,0.15350342,-0.9886604,0.13226682,-3.28037119,-5.49750566,-39.54961014,-15.55100822,11.31248188,-84.30283356,-4.17150164,14.95256805,0.42567113,0.99081755,0.03656853,-0.12989461,-0.0084162,-0.00668841,0.05361165,0.01015413,0,0,0,0,2
4,1.5499,155,-0.00441943,-0.69926518,-0.65575576,-15.14382744,8.39935017,-4.70608425,-46.65302658,-47.67611694,-54.83776474,0,0,0,1,0,0,0,0,0,0,0,0,0,0,2
3,1.5298,141,0.00586176,-0.94384664,0.14934111,-24.66958427,-12.77644157,43.50291443,-61.85326004,21.30955887,-89.44753265,-4.79853535,-11.55624104,-0.13721776,0.99404132,0.04177059,0.10053815,0.00540492,-0.06961919,0.01504499,-0.03191842,0,0,0,0,2
3,1.5398,142,-0.05533477,-0.95698237,0.11686125,-16.57851028,-15.30643463,43.3129425,-61.35632706,23.44343758,-88.83367157,-4.95992231,-11.96218204,-0.32515666,0.99360812,0.04332963,0.10398009,0.00732815,-0.00997414,-0.01308411,-0.03436114,0,0,0,0,2
5,1.7601,45,0.29234383,-0.9378773,-0.15279514,7.58298254,10.47047806,-1.12472129,-43.81759644,14.70330334,-116.3110199,0.63055754,0.03294012,-1.39718461,0.99991047,-0.00550572,-0.00022034,0.01219383,0.00360671,0.01877792,-0.00618233,0,0,0,0,2
5,1.7701,46,0.29800135,-0.93687856,-0.148967,7.89917707,10.85038662,-0.87432587,-42.91143036,14.5863781,-116.2233276,0.951011,0.0712793,-1.37053657,0.99989378,-0.00830588,-0.00052271,0.01196465,-0.00175637,0.01958703,-0.00609966,0,0,0,0,2
5,1.7801,47,0.29813576,-0.93426704,-0.15128483,7.94880104,11.06930637,-1.27283955,-42.91143036,14.5863781,-116.2233276,1.0586009,0.10354506,-1.29216015,0.99989331,-0.0092475,-0.00079934,0.01128384,-0.00185379,0.01213451,-0.00801371,0,0,0,0,2
5,1.7901,48,0.2908721,-0.92865789,-0.1550983,7.80188704,11.35693741,-1.7022661,-43.26220322,14.79099655,-116.6325607,1.16545427,0.14037935,-1.21129382,0.99989152,-0.0101827,-0.0011174,0.01058224,0.00427887,0.00545843,-0.01469883,0,0,0,0,2
1,1.5799,128,0.1421359,-1.00873864,0.15193693,-6.39271975,-0.02534419,-39.68828583,-15.17100239,10.02630806,-84.44898987,-3.7364192,15.10208607,0.26780751,0.99078858,0.03262477,-0.13126361,-0.00659958,0.00773259,0.0687822,0.03546979,0,0,0,0,2
1,1.5899,129,0.12985179,-1.01042891,0.07194479,-8.99225426,-0.54098874,-41.12327194,-14.61560917,11.51710033,-84.8874588,-3.82684875,15.51165676,0.28720215,0.9902854,0.03342184,-0.13479309,-0.00698793,0.02475844,-0.01558315,0.02729926,0,0,0,0,2
4,1.5599,156,0.0235531,-0.70301974,-0.66023225,-20.55370331,10.87532043,-5.9755497,-46.65302658,-47.67611694,-54.83776474,0,0,0,1,0,0,0,0,0,0,0,0,0,0,2
4,1.5699,157,0.03815439,-0.70406991,-0.66279459,-23.7091217,10.58390141,-5.3896184,-46.76995087,-48.55305481,-55.65623856,0,0,0,1,0,0,0,0,0,0,0,0,0,0,2
4,1.5799,158,0.0393182,-0.71174252,-0.66710365,-24.46421051,11.72198296,-4.37544394,-46.85764313,-47.70534897,-54.75007248,0,0,0,1,0,0,0,0,0,0,0,0,0,0,2
4,1.5899,159,0.03596286,-0.72368658,-0.67970824,-27.05646515,11.96390629,-3.63482285,-46.18532562,-48.20227814,-54.95469284,0,0,0,1,0,0,0,0,0,0,0,0,0,0,2
4,1.5999,160,0.03203934,-0.7266348,-0.69548887,-28.49056816,11.32286358,-1.45198548,-46.62379456,-47.70534897,-55.62701035,0,0,0,1,0,0,0,0,0,0,0,0,0,0,2
4,1.6099,161,0.03523429,-0.71927452,-0.72082609,-27.72016907,12.13845348,1.60003424,-46.62379456,-47.70534897,-55.62701035,0,0,0,1,0,0,0,0,0,0,0,0,0,0,2
5,1.8001,49,0.27242163,-0.91970837,-0.1636077,7.94778633,12.50955486,-1.78180659,-44.22683334,15.22946453,-116.5448685,1.27708602,0.17982388,-1.1200496,0.99988878,-0.01115924,-0.00146016,0.00979099,0.02043256,-0.00651847,-0.02697872,0,0,0,0,2
5,1.8101,50,0.26036197,-0.9186976,-0.17770177,8.22636986,12.85820389,-2.42550802,-43.58374786,14.79099655,-115.7848587,1.39210296,0.22603999,-1.02732146,0.99988389,-0.01216526,-0.00186344,0.00898823,0.03321123,-0.02253255,-0.02889417,0,0,0,0,2
5,1.8201,51,0.26429963,-0.92133534,-0.17503341,8.41735077,13.08547878,-3.12356615,-43.02835464,11.25401878,-115.5217743,1.26928639,-0.09226324,-0.93568897,0.99990511,-0.01106944,0.00089551,0.00815591,0.0293399,-0.02039197,-0.02571243,0,0,0,0,2
3,1.5498,143,-0.05166095,-0.97035849,0.1906817,-15.53334332,-14.06048203,43.75380325,-62.32095718,22.30341911,-88.1905899,-5.11046743,-12.37473106,-0.50196481,0.99315572,0.04479397,0.10747775,0.00915566,-0.01629675,0.05829016,-0.00314226,0,0,0,0,2
3,1.5598,144,-0.11500324,-0.97353733,0.23262221,-21.82128334,-4.97755384,43.91119003,-62.78865814,23.9988308,-89.56445312,-5.33118391,-12.8005209,-0.57722878,0.99265349,0.04677702,0.11111858,0.01018462,0.04096366,0.10165869,0.00170123,0,0,0,0,2
3,1.5698,145,-0.16470322,-0.9802447,0.2261323,-24.04909515,-1.75183451,42.99245071,-62.46711349,23.35574341,-89.41829681,-5.57719994,-13.22131062,-0.6138311,0.99213088,0.0489428,0.11472499,0.01091546,0.08368529,0.09776151,0.00152359,0,0,0,0,2
3,1.5798,146,-0.14745575,-0.99313337,0.23270205,-29.32035828,2.18097854,41.75666046,-62.2040329,24.02806091,-89.94445801,-5.36006451,-13.99013424,-0.86164594,0.99140024,0.04732369,0.12129825,0.01314932,0.06009689,0.10362009,0.0201815,0,0,0,0,2
3,1.5898,147,-0.11125868,-0.98508048,0.15075746,-25.7716217,10.2614069,41.79005814,-62.2040329,24.02806091,-89.94445801,-5.63579607,-14.41399193,-0.77230889,0.99083573,0.04961673,0.12497107,0.0128457,0.00888141,0.02358257,0.00253461,0,0,0,0,2
3,1.5998,148,-0.06790771,-0.99085301,0.16204926,-24.44334793,18.56996346,40.92955399,-63.5194397,25.13884735,-89.15522003,-5.90854549,-14.83925056,-0.59734702,0.99026096,0.05177896,0.12869543,0.01181769,-0.0400063,0.03762356,0.01918068,0,0,0,0,2
3,1.6098,149,-0.05981526,-0.99645185,0.13105756,-29.09348106,15.86511707,40.06707764,-64.13329315,25.1973114,-90.20754242,-6.22764206,-15.2512455,-0.43933868,0.98965806,0.05434689,0.13229629,0.01100257,-0.05527922,0.01102759,0.02140832,0,0,0,0,2
4,1.6199,162,0.05591834,-0.71858102,-0.73019177,-24.68758202,14.1505394,3.43875074,-46.74071884,-47.44226837,-56.62086868,0,0,0,1,0,0,0,0,0,0,0,0,0,0,2
4,1.6299,163,0.08512423,-0.71464562,-0.70973867,-21.78373528,14.43029881,5.73718596,-46.79918289,-47.06226349,-56.03624725,0,0,0,1,0,0,0,0,0,0,0,0,0,0,2
4,1.6399,164,0.11132236,-0.704705,-0.68341416,-22.47577667,12.0465374,6.96488523,-46.30224991,-47.41303635,-55.53931427,0,0,0,1,0,0,0,0,0,0,0,0,0,0,2
4,1.6499,165,0.10364281,-0.68231326,-0.66946214,-28.0363121,8.57108784,7.9107666,-46.30224991,-47.41303635,-55.53931427,0,0,0,1,0,0,0,0,0,0,0,0,0,0,2
4,1.6599,166,0.09634987,-0.65385759,-0.6710459,-34.1459198,7.5023551,7.11508417,-46.56533051,-47.03303146,-56.41625214,0,0,0,1,0,0,0,0,0,0,0,0,0,0,2
4,1.6699,167,0.08449755,-0.61691272,-0.67026508,-35.75208282,6.65198278,6.15687466,-46.38994217,-48.08535385,-56.9131813,0,0,0,1,0,0,0,0,0,0,0,0,0,0,2
3,1.6198,150,-0.05445692,-1.00217199,0.13837218,-23.47681046,10.70155334,39.28695297,-64.16252136,24.37883568,-89.85676575,-6.48399401,-15.64980125,-0.33902758,0.9890762,0.05642864,0.13576186,0.01062581,-0.06630224,0.02159252,0.0316805,0,0,0,0,2
4,1.6799,168,0.09282303,-0.60070074,-0.68822187,-32.30409622,5.82189751,5.63142824,-46.68225479,-47.14995575,-57.38088226,0,0,0,1,0,0,0,0,0,0,0,0,0,0,2
3,1.6298,151,-0.06647696,-1.01168752,0.18965256,-22.16928482,8.23927402,37.6745224,-64.63022614,24.90499878,-90.00292206,-5.97939491,-15.41942501,-0.56242585,0.98956543,0.05234182,0.13371626,0.01185399,-0.05534916,0.07021121,0.05148399,0,0,0,0,2
5,1.8601,52,0.26424161,-0.9198904,-0.18186893,10.4400835,15.84501266,-5.64234924,-43.14527893,14.14791012,-115.4048538,1.7976135,0.18427512,-0.52681017,0.99986506,-0.0156937,-0.00153577,0.00462192,0.02911809,-0.03328145,-0.02568007,0,0,0,0,2
5,1.8701,53,0.26558876,-0.91166401,-0.18213569,11.44346046,16.46997833,-6.65673923,-42.79450226,14.41099072,-116.2233276,1.49753225,-0.06839529,-0.32420513,0.99991047,-0.01306632,0.00063378,0.00282118,0.02550046,-0.03573806,-0.03291522,0,0,0,0,2
5,1.8801,54,0.26333225,-0.91050017,-0.18101177,12.61353016,15.10752106,-7.52783442,-42.79450226,14.41099072,-116.2233276,1.65774584,0.03182102,-0.23102549,0.99989331,-0.01446658,-0.0002485,0.00201988,0.02443344,-0.03168103,-0.03498537,0,0,0,0,2
4,1.6899,169,0.09030028,-0.61042106,-0.71171552,-25.48503685,2.56304622,5.32077265,-46.79918289,-47.3545723,-57.35165024,0,0,0,1,0,0,0,0,0,0,0,0,0,0,2
1,1.5999,130,0.15398173,-0.98895878,0.04671597,-9.77667713,-1.95712626,-41.7228775,-14.5863781,12.16018677,-85.26746368,-3.92770028,15.92834473,0.29095733,0.98975801,0.03428989,-0.1383858,-0.00726119,0.01051022,-0.0357765,0.0018661,0,0,0,0,2
1,1.6099,131,0.15441109,-0.97277814,0.05003913,-7.93480349,1.03571427,-41.67882538,-14.5863781,12.16018677,-85.26746368,-4.00450897,16.34232521,0.32697296,0.98922545,0.03498928,-0.14194469,-0.00778854,0.01873517,-0.02880077,-0.01151036,0,0,0,0,2
1,1.6199,132,0.15793806,-0.97632331,0.0815938,-9.80483723,2.02243114,-42.49331665,-13.97252274,11.75094986,-84.47821808,-4.0985446,16.7635498,0.37114805,0.98866403,0.0358486,-0.14555973,-0.00841471,0.02133957,0.00318041,-0.00158269,0,0,0,0,2
5,1.8901,55,0.25691226,-0.91395736,-0.1644146,13.66037273,15.10332108,-8.43509197,-43.11604691,14.76176548,-115.7263947,1.82759261,0.14080736,-0.14210823,0.99987131,-0.01594957,-0.00120884,0.00125957,0.03246566,-0.01762848,-0.03659327,0,0,0,0,2
5,1.9001,56,0.2743696,-0.93233383,-0.13889745,14.29590321,13.8392868,-9.2444582,-42.61911774,14.61560917,-115.5802383,1.99949586,0.25557551,-0.06787954,0.99984509,-0.01744927,-0.00221964,0.00063118,0.02169041,0.00793178,-0.01873104,0,0,0,0,2
5,1.9101,57,0.29117662,-0.92963827,-0.12517086,13.91998005,14.0133419,-9.37573338,-42.53142166,14.06021595,-115.7556229,2.16839385,0.37163249,0.00927732,0.99981576,-0.01892131,-0.00324405,-0.00001958,0.00609653,0.01792313,-0.01864951,0,0,0,0,2
5,1.9201,58,0.29121658,-0.92769349,-0.13497336,14.43474865,14.00928593,-9.75043011,-42.38526535,14.14791012,-115.3171539,2.34454894,0.4047907,0.03875928,0.99978453,-0.0204573,-0.00353864,-0.0002659,0.007724,0.00493109,-0.01854737,0,0,0,0,2
5,1.9301,59,0.29200512,-0.93589783,-0.15433422,15.04825497,13.06212711,-10.70969963,-42.61911774,14.70330334,-115.2879257,2.52078342,0.53227168,0.10240799,0.99974704,-0.02199181,-0.00466346,-0.00079128,0.01150621,-0.01560274,-0.00695742,0,0,0,0,2
1,1.6299,133,0.18820435,-0.97220367,0.07846019,-10.01410389,3.1671741,-42.88214111,-14.06021595,12.5986557,-84.50745392,-4.49491501,17.32496071,0.51122224,0.98779619,0.03943914,-0.15032314,-0.01031327,-0.00060025,0.0033442,-0.00690572,0,0,0,0,2
1,1.6399,134,0.22259989,-0.97106755,0.04601955,-10.27807903,4.10220242,-42.62092209,-13.32943535,11.89710617,-84.27360535,-4.58989811,17.74630356,0.5730288,0.98719656,0.04033468,-0.15392388,-0.01111335,-0.02536983,-0.02339405,-0.01347176,0,0,0,0,2
1,1.6499,135,0.23396662,-0.96676755,0.05650173,-9.12350655,3.62953997,-43.09679413,-13.97252274,12.39403629,-85.20899963,-4.67371368,18.17290306,0.63102293,0.9865796,0.04113116,-0.15756907,-0.01187226,-0.02934827,-0.01117516,-0.01503581,0,0,0,0,2
1,1.6599,136,0.22594185,-0.96940243,0.03490295,-11.4048481,3.39555073,-44.43735123,-13.97252274,12.39403629,-85.20899963,-4.78124428,18.61292267,0.68426555,0.98592079,0.04212715,-0.16132563,-0.01263294,-0.01408584,-0.03142802,-0.01225242,0,0,0,0,2
4,1.6999,170,0.0686745,-0.62602305,-0.71188015,-19.576231,2.26872611,5.03145409,-46.79918289,-47.3545723,-57.35165024,0,0,0,1,0,0,0,0,0,0,0,0,0,0,2
4,1.7099,171,0.0510653,-0.6444692,-0.70878458,-15.99839878,3.03330278,4.02630234,-47.23764801,-47.3545723,-56.70856476,0,0,0,1,0,0,0,0,0,0,0,0,0,0,2
4,1.7199,172,0.04889418,-0.65320247,-0.71579474,-14.4338131,2.68887687,3.09648442,-46.8284111,-46.97456741,-57.41011429,0,0,0,1,0,0,0,0,0,0,0,0,0,0,2
4,1.7299,173,0.05687544,-0.6643877,-0.72984284,-13.21376228,3.1755867,3.00937176,-46.91610718,-47.0914917,-57.84858322,0,0,0,1,0,0,0,0,0,0,0,0,0,0,2
4,1.7399,174,0.06016172,-0.66404408,-0.74551231,-10.78557587,3.58066773,1.69080365,-47.00379944,-46.91610718,-57.35165024,0,0,0,1,0,0,0,0,0,0,0,0,0,0,2
4,1.7499,175,0.07686821,-0.7014913,-0.70585197,-9.94807243,1.99925613,-6.17345953,-47.00379944,-46.91610718,-57.35165024,0,0,0,1,0,0,0,0,0,0,0,0,0,0,2
3,1.6398,152,-0.10775725,-1.01733756,0.147809,-24.32004929,9.98344994,35.70836639,-64.63022614,24.90499878,-90.00292206,-6.24326324,-15.78187656,-0.46573144,0.98902285,0.05449685,0.13686378,0.01149586,-0.01357798,0.02317795,0.04081598,0,0,0,0,2
3,1.6498,153,-0.14732011,-1.0200845,0.08048649,-19.03845596,5.55573606,33.82499695,-64.74714661,26.07424736,-90.38292694,-6.44754696,-16.12111664,-0.41842327,0.98851824,0.056191,0.13979352,0.01149493,0.01795487,-0.03937564,0.02509556,0,0,0,0,2
3,1.6598,154,-0.13932851,-1.01441991,0.08300751,-14.95183659,4.27889824,34.13857269,-65.24407959,25.63577843,-90.52908325,-6.60845041,-16.46259689,-0.3895497,0.98801911,0.05752942,0.14273679,0.01161075,0.00366082,-0.033078,0.02328975,0,0,0,0,2
4,1.7599,176,0.08064216,-0.67747617,-0.67246974,-18.62152481,6.61150599,-6.60094452,-46.1560936,-47.32534409,-57.49780655,0,0,0,1,0,0,0,0,0,0,0,0,0,0,2
3,1.6698,155,-0.15141252,-0.99877155,0.13015527,-19.52442551,9.13174725,35.02339554,-64.68869019,25.66501045,-90.82139587,-6.82449627,-16.81712341,-0.30363196,0.98747021,0.05926651,0.14581503,0.01132014,0.009028,0.01941348,0.01880874,0,0,0,0,2
3,1.6798,156,-0.1659586,-1.00190437,0.06744152,-18.8301754,13.36189365,34.86388016,-64.45483398,25.31423569,-91.1137085,-7.70732737,-17.18334007,-0.08100467,0.98653513,0.06655955,0.14900672,0.01073775,0.0158729,-0.0362444,0.00863982,0,0,0,0,2
3,1.6898,157,-0.12038994,-1.00201654,0.04653518,-15.83896065,17.13579178,35.97769547,-65.68254852,26.60040855,-91.28909302,-7.90181017,-17.5534687,0.08857081,0.98594958,0.06797716,0.15227446,0.00975126,-0.03606587,-0.04533429,0.01425191,0,0,0,0,2
3,1.6998,158,-0.10143839,-0.97670192,0.09833272,-17.56315994,16.14261055,36.26747894,-65.68254852,26.60040855,-91.28909302,-8.11402416,-17.92473984,0.25194165,0.98533756,0.06954344,0.1555486,0.00885534,-0.06293757,0.01384043,0.00628428,0,0,0,0,2
3,1.7098,159,-0.07465226,-0.95148998,0.08113686,-21.64904976,17.76509666,36.06337738,-65.74101257,25.13884735,-91.14293671,-8.37312889,-18.29376793,0.44045889,0.98468697,0.07146607,0.15881762,0.0078204,-0.09971025,0.00628166,-0.01534991,0,0,0,0,2
3,1.7198,160,-0.09325825,-0.95242631,0.05951376,-23.76028442,20.78467751,37.12394333,-65.65332031,25.78193474,-91.2306366,-8.66175079,-18.67431831,0.66510493,0.98398775,0.07357527,0.16221027,0.00654095,-0.088091,-0.01072904,-0.01915171,0,0,0,0,2
5,1.9401,60,0.29564586,-0.92801082,-0.14726497,15.68711853,12.9519453,-11.70191956,-42.61911774,14.70330334,-115.2879257,2.70234013,0.66929173,0.16214272,0.99970412,-0.02357148,-0.00587237,-0.00127682,0.00765044,-0.01328853,-0.01439484,0,0,0,0,2
1,1.6699,137,0.20947787,-0.96366394,0.08510815,-10.41377354,1.77428389,-45.092556,-13.56328583,13.50482273,-84.62437439,-4.88207245,19.06072617,0.72141987,0.98523927,0.04304394,-0.16515225,-0.0132547,0.0094468,0.02051688,-0.00603243,0,0,0,0,2
3,1.7598,161,-0.18793222,-0.99349403,0.07328846,-22.21544266,0.16206229,38.07529068,-64.95176697,26.04501534,-91.99064636,-9.48726368,-20.14753532,0.83418065,0.98129022,0.0801514,0.17490487,0.00732195,-0.01245598,0.00614672,0.02024309,0,0,0,0,2
1,1.6799,138,0.20996727,-0.95879012,0.10803693,-12.8100071,4.45724392,-45.30451202,-12.97866154,13.12481689,-85.15054321,-4.51083136,19.46554565,0.71685553,0.98478252,0.03984379,-0.1686762,-0.01281372,0.01633042,0.04355303,-0.00499959,0,0,0,0,2
4,1.7699,177,0.09764424,-0.66318882,-0.69605589,-27.32394028,3.95945621,-9.0275631,-46.65302658,-46.59456253,-57.70242691,0,0,0,1,0,0,0,0,0,0,0,0,0,0,2
4,1.7799,178,0.08686522,-0.64999664,-0.69064605,-28.13306618,-0.96447092,-11.87458229,-46.56533051,-46.68225479,-58.98859787,0,0,0,1,0,0,0,0,0,0,0,0,0,0,2
4,1.7899,179,0.0874063,-0.62762189,-0.71420181,-30.80881119,-1.1267513,-12.84960365,-46.56533051,-46.68225479,-58.98859787,0,0,0,1,0,0,0,0,0,0,0,0,0,0,2
4,1.7999,180,0.07811332,-0.61984944,-0.73045617,-31.61491966,-0.16796623,-12.50069141,-46.68225479,-47.00379944,-58.43320465,0,0,0,1,0,0,0,0,0,0,0,0,0,0,2
4,1.8099,181,0.06034354,-0.61502695,-0.73650914,-28.17908096,0.34340468,-11.69266415,-46.59456253,-46.8284111,-57.93627548,0,0,0,1,0,0,0,0,0,0,0,0,0,0,2
4,1.8199,182,0.04504098,-0.62624222,-0.74521124,-24.7660923,-0.7499789,-10.84365273,-46.79918289,-47.03303146,-58.7547493,0,0,0,1,0,0,0,0,0,0,0,0,0,0,2
1,1.6899,139,0.24272998,-0.93499362,0.10810381,-12.67250538,7.42963696,-44.60824585,-13.27097321,13.76790428,-84.94592285,-4.61979294,19.90418434,0.81294972,0.98407811,0.04092196,-0.17239822,-0.01394725,-0.00688611,0.04281673,-0.0299344,0,0,0,0,2
1,1.6999,140,0.29298574,-0.93923199,0.06820441,-12.86013126,7.18238783,-42.52280807,-12.5401926,12.8617363,-84.8874588,-4.73104,20.3223362,0.90413392,0.9833886,0.04201648,-0.17594123,-0.0150409,-0.04966363,0.00429244,-0.03452949,0,0,0,0,2
1,1.7099,141,0.31024161,-0.96529698,0.0879854,-12.86176205,2.80296826,-41.92251587,-12.5401926,12.8617363,-84.8874588,-4.853477,20.73757172,0.94784051,0.98269093,0.0431364,-0.17947118,-0.01574957,-0.06317249,0.02169146,-0.00520328,0,0,0,0,2
4,1.8299,183,0.0364813,-0.62999189,-0.7431336,-23.82338142,-1.20938766,-10.03470802,-46.85764313,-46.68225479,-59.51476288,0,0,0,1,0,0,0,0,0,0,0,0,0,0,2
5,2.0601,61,0.4237597,-0.90029836,-0.00614676,11.28474617,15.43485355,-10.7804966,-40.51446915,13.5925169,-114.1771393,5.98862123,2.69046831,1.02910459,0.99833024,-0.05200972,-0.02391259,-0.00773948,-0.09540024,0.0626422,-0.02271132,0,0,0,0,2
5,2.0701,62,0.47036499,-0.88685,-0.00396875,10.85922432,14.13076305,-9.56181145,-40.48523712,13.91405964,-114.58638,6.70801163,4.50405693,0.51917917,0.99751627,-0.05828148,-0.03949233,-0.00222048,-0.13450326,0.0572368,-0.02074387,0,0,0,0,2
5,2.0801,63,0.48703417,-0.89621294,-0.02127881,10.20369148,12.67381287,-8.5892067,-40.54370117,14.08944702,-114.0602188,6.84431696,4.60322332,0.60451609,0.99741036,-0.05943194,-0.04040236,-0.00286451,-0.1226614,0.03232913,-0.0012111,0,0,0,0,2
5,2.0901,64,0.45052341,-0.92774737,-0.04231509,9.70239544,10.22566032,-7.62466431,-40.54370117,14.08944702,-114.0602188,6.96767282,4.69052935,0.66879368,0.9973135,-0.06047662,-0.04119919,-0.00333402,-0.07580706,0.01549596,0.02172036,0,0,0,0,2
3,1.7698,162,-0.21818875,-0.97289759,0.05481961,-18.47203636,-8.23265839,37.91590881,-66.20870972,27.09733963,-91.93218231,-9.66615963,-20.51685715,0.75449878,0.98059326,0.0817361,0.17799705,0.00854826,0.00785335,-0.00444854,-0.00531521,0,0,0,0,2
3,1.7798,163,-0.23055066,-0.96064526,0.06820768,-14.17625618,-11.08212376,37.77240372,-65.97486115,27.12657166,-92.37065125,-9.38142014,-21.06272316,0.55265933,0.97992277,0.07951989,0.18254709,0.01022077,0.01203975,0.01159655,-0.01340682,0,0,0,0,2
3,1.7898,164,-0.24030392,-0.95809197,0.09617964,-14.3818922,-2.2414639,37.17320251,-66.96871948,27.62350082,-92.4291153,-9.53044796,-21.42891312,0.52929139,0.97923052,0.08076806,0.18564689,0.0109216,0.01406871,0.03606743,-0.00859195,0,0,0,0,2
3,1.7998,165,-0.26760021,-0.96231049,0.09605637,-18.90586662,2.86620283,36.53223801,-66.96871948,26.36655998,-91.69833374,-9.73966599,-21.79053879,0.56872886,0.97849721,0.08242632,0.1887434,0.01118964,0.03575899,0.03768328,-0.00572357,0,0,0,0,2
3,1.8098,166,-0.26018691,-0.95764935,0.0752842,-18.08140945,2.73247528,36.11699677,-66.96871948,26.36655998,-91.69833374,-9.94066238,-22.14801407,0.6072138,0.97776413,0.08401145,0.19180232,0.01146057,0.02128599,0.0213645,-0.01080315,0,0,0,0,2
3,1.8198,167,-0.24515568,-0.96190113,0.05256689,-17.8688755,5.4318099,36.61029816,-67.23180389,28.06196976,-91.96141052,-10.14742756,-22.51164436,0.6754452,0.97700739,0.08558873,0.19493298,0.01150346,0.00047228,0.00107247,-0.00655404,0,0,0,0,2
1,1.7199,142,0.31838009,-0.98639125,0.08214727,-13.01220798,-2.42940354,-41.59459686,-12.83250523,13.97252274,-84.91668701,-4.99171543,21.15296555,0.93466669,0.98198044,0.04430156,-0.18301846,-0.01600295,-0.06669442,0.01470347,0.01651245,0,0,0,0,2
1,1.7299,143,0.32688922,-0.98645991,0.09000769,-13.278862,-4.03122568,-41.51301956,-12.45249939,14.23560333,-84.18591309,-4.87850857,22.06231117,0.78471458,0.98055518,0.0430819,-0.19087872,-0.01485863,-0.0665215,0.02346504,0.02033471,0,0,0,0,2
1,1.7399,144,0.30373675,-0.9663136,0.06853875,-11.36891174,-7.95369148,-41.18721008,-12.33557415,13.8555975,-85.44285583,-5.01656485,22.47729301,0.71366268,0.97981215,0.04413636,-0.1944381,-0.01463178,-0.02823438,0.00394201,0.00491906,0,0,0,0,2
1,1.7499,145,0.29954699,-0.95423919,0.07881509,-11.01723671,-11.92927933,-40.64395905,-11.25401878,13.38789845,-85.12130737,-5.16415787,22.88914299,0.59861249,0.97906196,0.04518964,-0.19798498,-0.01405358,-0.01627741,0.01791279,-0.0020211,0,0,0,0,2
5,2.1001,65,0.39781347,-0.94312251,-0.06504333,9.91245651,7.65711689,-7.1978302,-40.89447403,13.21251106,-114.0017548,7.08383608,4.77159548,0.70831817,0.99722159,-0.0614672,-0.04192921,-0.00359237,-0.01827207,-0.00589442,0.02497008,0,0,0,0,2
